cue,tar,corrAns,targOrientation,pracLoop.thisRepN,pracLoop.thisTrialN,pracLoop.thisN,pracLoop.thisIndex,blockLoop.thisRepN,blockLoop.thisTrialN,blockLoop.thisN,blockLoop.thisIndex,mainLoop.thisRepN,mainLoop.thisTrialN,mainLoop.thisN,mainLoop.thisIndex,pracText1.started,pracText1.stopped,practInst2.started,practInst2.stopped,fixFuration,image.started,image.stopped,cues.started,cues.stopped,target.started,target.stopped,resp.keys,resp.corr,resp.rt,resp.started,resp.stopped,fixationshort.started,fixationshort.stopped,text.started,text.stopped,mainInst.started,mainInst.stopped,instResp.keys,instResp.rt,instResp.started,instResp.stopped,rest.started,rest.stopped,endText.started,endText.stopped,participant,session,date,expName,psychopyVersion,frameRate,
stim/upper.png,stim/incongLeft.png,left,0,0,0,0,16,,,,,,,,,13.977824300003704,None,18.57478500000434,None,0.5,19.370301099988865,None,19.89652720000595,20.005564699997194,20.38912690000143,None,left,1,0.6222951000090688,20.38912690000143,None,19.89652720000595,20.40549770000507,21.07217309999396,None,,,,,,,,,,,0,001,2020_Jun_30_1059,ANT,2020.1.3,60.075719432858385,
stim/centre.png,stim/incongLeft.png,right,180,0,1,1,22,,,,,,,,,,,,,0.5,22.087397900002543,None,22.589956999989226,22.703363800013904,23.086195799987763,None,right,1,0.7794979000173043,23.086195799987763,None,22.589956999989226,23.102711699990323,23.906934400001774,None,,,,,,,,,,,0,001,2020_Jun_30_1059,ANT,2020.1.3,60.075719432858385,
stim/centre.png,stim/congRight.png,left,180,0,2,2,14,,,,,,,,,,,,,0.55,24.918303699989337,None,25.472758999996586,25.58454619999975,25.967706700001145,None,left,1,0.5319374999962747,25.967706700001145,None,25.472758999996586,25.984113999991678,26.539225100015756,None,,,,,,,,,,,0,001,2020_Jun_30_1059,ANT,2020.1.3,60.075719432858385,
stim/both.png,stim/incongLeft.png,right,180,0,3,3,21,,,,,,,,,,,,,0.4,27.549690200015903,None,27.95215329999337,28.065685500012478,28.448918900015997,None,right,1,0.5467228000052273,28.448918900015997,None,27.95215329999337,28.465778000012506,29.01676190001308,None,,,,,,,,,,,0,001,2020_Jun_30_1059,ANT,2020.1.3,60.075719432858385,
stim/lower.png,stim/incongLeft.png,right,180,0,4,4,20,,,,,,,,,,,,,0.55,30.03105140000116,None,30.585132000007434,30.696989099989878,31.080330299999332,None,right,1,0.6026580999896396,31.080330299999332,None,30.585132000007434,31.096813700016355,31.734627500001807,None,,,,,,,,,,,0,001,2020_Jun_30_1059,ANT,2020.1.3,60.075719432858385,
stim/both.png,stim/congLeft.png,right,180,0,5,5,5,,,,,,,,,,,,,0.5,32.74525460001314,None,33.249038900015876,33.36157529999036,33.74411410000175,None,right,1,0.6427967000054196,33.74411410000175,None,33.249038900015876,33.76055219999398,34.43162449999363,None,,,,,,,,,,,0,001,2020_Jun_30_1059,ANT,2020.1.3,60.075719432858385,
stim/both.png,stim/congLeft.png,left,0,0,6,6,1,,,,,,,,,,,,,0.4,35.44327320001321,None,35.84723069999018,35.95932739999262,36.342668800003594,None,left,1,0.538277100014966,36.342668800003594,None,35.84723069999018,36.35889440000756,36.923783900012495,None,,,,,,,,,,,0,001,2020_Jun_30_1059,ANT,2020.1.3,60.075719432858385,
stim/blank.png,stim/incongLeft.png,left,0,0,7,7,19,,,,,,,,,,,,,0.55,37.92430630000308,None,38.47616729998845,38.590491700015264,38.97385380000924,None,right,0,0.5757980000053067,38.97385380000924,None,38.47616729998845,38.990300000004936,39.585496000014246,None,,,,,,,,,,,0,001,2020_Jun_30_1059,ANT,2020.1.3,60.075719432858385,
stim/upper.png,stim/congRight.png,right,0,0,8,8,8,,,,,,,,,,,,,0.5,40.589035400014836,None,41.091830599994864,41.20488810000825,41.58843740000157,None,right,1,0.5715161999978591,41.58843740000157,None,41.091830599994864,41.60494789999211,42.203942299995106,None,,,,,,,,,,,0,001,2020_Jun_30_1059,ANT,2020.1.3,60.075719432858385,
stim/blank.png,stim/congLeft.png,right,180,0,9,9,7,,,,,,,,,,,,,0.45,43.219285500003025,None,43.67359620000934,43.78601979999803,44.16927509999368,None,left,0,0.5477364999824204,44.16927509999368,None,43.67359620000934,44.18565239998861,44.74757330000284,None,,,,,,,,,,,0,001,2020_Jun_30_1059,ANT,2020.1.3,60.075719432858385,
stim/centre.png,stim/congLeft.png,right,180,0,10,10,6,,,,,,,,,,,,,0.45,45.75146810000297,None,46.206907999992836,46.31756830000086,46.70020600000862,None,right,1,0.546887299977243,46.70020600000862,None,46.206907999992836,46.71660859999247,47.281589799997164,None,,,,,,,,,,,0,001,2020_Jun_30_1059,ANT,2020.1.3,60.075719432858385,
stim/blank.png,stim/congLeft.png,left,0,0,11,11,3,,,,,,,,,,,,,0.55,48.28281070000958,None,48.8363393000036,48.94867300000624,49.3320015000063,None,left,1,0.5648499000235461,49.3320015000063,None,48.8363393000036,49.34854939999059,49.928675900009694,None,,,,,,,,,,,0,001,2020_Jun_30_1059,ANT,2020.1.3,60.075719432858385,
stim/centre.png,stim/congRight.png,right,0,0,12,12,10,,,,,,,,,,,,,0.45,50.930191199993715,None,51.385222500015516,51.49621440001647,51.88010919999215,None,right,1,0.5634572000126354,51.88010919999215,None,51.385222500015516,51.89641700001084,52.46260520000942,None,,,,,,,,,,,0,001,2020_Jun_30_1059,ANT,2020.1.3,60.075719432858385,
stim/both.png,stim/congRight.png,right,0,0,13,13,9,,,,,,,,,,,,,0.45,53.461935500003165,None,53.91321580001386,54.02784729999257,54.41096020000987,None,right,1,0.5074096000171266,54.41096020000987,None,53.91321580001386,54.427471500006504,54.965888400009135,None,,,,,,,,,,,0,001,2020_Jun_30_1059,ANT,2020.1.3,60.075719432858385,
stim/centre.png,stim/congLeft.png,left,0,0,14,14,2,,,,,,,,,,,,,0.55,55.97639570001047,None,56.530140099988785,56.6424573000113,57.02551350000431,None,left,1,0.507946500001708,57.02551350000431,None,56.530140099988785,57.04198360000737,57.560226200002944,None,,,,,,,,,,,0,001,2020_Jun_30_1059,ANT,2020.1.3,60.075719432858385,
stim/centre.png,stim/incongLeft.png,left,0,0,15,15,18,,,,,,,,,,,,,0.5,58.57368299999507,None,59.079230400006054,59.190226500009885,59.573405200004345,None,left,1,0.5191724000032991,59.573405200004345,None,59.079230400006054,59.589945799991256,60.139001200004714,None,,,,,,,,,,,0,001,2020_Jun_30_1059,ANT,2020.1.3,60.075719432858385,
stim/blank.png,stim/congRight.png,right,0,0,16,16,11,,,,,,,,,,,,,0.4,61.13881259999471,None,61.54293399999733,61.655047300009755,62.03762590000406,None,right,1,0.6360250000143424,62.03762590000406,None,61.54293399999733,62.05400699999882,62.7195888000133,None,,,,,,,,,,,0,001,2020_Jun_30_1059,ANT,2020.1.3,60.075719432858385,
stim/lower.png,stim/congRight.png,left,180,0,17,17,12,,,,,,,,,,,,,0.4,63.72010830001091,None,64.12446670001373,64.23626179998973,64.61928959999932,None,left,1,0.5736294999951497,64.61928959999932,None,64.12446670001373,64.63570310000796,65.234200100007,None,,,,,,,,,,,0,001,2020_Jun_30_1059,ANT,2020.1.3,60.075719432858385,
stim/lower.png,stim/congLeft.png,right,180,0,18,18,4,,,,,,,,,,,,,0.45,66.23438499998883,None,66.69143800000893,66.80054540000856,67.18377750000218,None,right,1,0.5339385999832302,67.18377750000218,None,66.69143800000893,67.20031650000601,67.75041480001528,None,,,,,,,,,,,0,001,2020_Jun_30_1059,ANT,2020.1.3,60.075719432858385,
stim/both.png,stim/congRight.png,left,180,0,19,19,13,,,,,,,,,,,,,0.45,68.76594509999268,None,69.21854810000514,69.33177980000619,69.71509230000083,None,left,1,0.52489329999662,69.71509230000083,None,69.21854810000514,69.73174980000476,70.280402400007,None,,,,,,,,,,,0,001,2020_Jun_30_1059,ANT,2020.1.3,60.075719432858385,
stim/upper.png,stim/congLeft.png,left,0,0,20,20,0,,,,,,,,,,,,,0.55,71.28048129999661,None,71.8346436000138,71.9465530999878,72.32986610001535,None,left,1,0.28391779999947175,72.32986610001535,None,71.8346436000138,72.34603590000188,72.64702390000457,None,,,,,,,,,,,0,001,2020_Jun_30_1059,ANT,2020.1.3,60.075719432858385,
stim/both.png,stim/incongLeft.png,left,0,0,21,21,17,,,,,,,,,,,,,0.55,73.66114889999153,None,74.21506479999516,74.32788019999862,74.7108353000076,None,left,1,0.2698132999939844,74.7108353000076,None,74.21506479999516,74.72724730000482,75.02951349999057,None,,,,,,,,,,,0,001,2020_Jun_30_1059,ANT,2020.1.3,60.075719432858385,
stim/blank.png,stim/incongLeft.png,right,180,0,22,22,23,,,,,,,,,,,,,0.4,76.04296930000419,None,76.44704230001662,76.55956130000413,76.94240790000185,None,left,0,0.4126807999855373,76.94240790000185,None,76.44704230001662,76.95920440001646,77.38771450001514,None,,,,,,,,,,,0,001,2020_Jun_30_1059,ANT,2020.1.3,60.075719432858385,
stim/blank.png,stim/congRight.png,left,180,0,23,23,15,,,,,,,,,,,,,0.55,78.39103719999548,None,78.9460301999934,79.0573718000087,79.4403491000121,None,left,1,0.9266268000064883,79.4403491000121,None,78.9460301999934,79.4568672000023,80.41704420000315,None,,,,,,,,,,,0,001,2020_Jun_30_1059,ANT,2020.1.3,60.075719432858385,
,,,,,,,,,,,,,,,,,,,,,,,,,,,,,,,,,,,,81.42215060000308,None,space,2.572947899985593,81.42215060000308,None,,,,,0,001,2020_Jun_30_1059,ANT,2020.1.3,60.075719432858385,
stim/centre.png,stim/congRight.png,right,0,,,,,0,0,0,0,0,0,0,10,,,,,0.45,84.0560215000005,None,84.51906520000193,84.61915959999897,85.00264049999532,None,right,1,1.2791338999813888,85.00264049999532,None,84.51906520000193,85.01905350000015,,,,,,,,,,,,,0,001,2020_Jun_30_1059,ANT,2020.1.3,60.075719432858385,
stim/centre.png,stim/neutralRight.png,right,0,,,,,0,0,0,0,0,1,1,42,,,,,0.4,86.30384649999905,None,86.72141200001352,86.83365849999245,87.21757249999791,None,right,1,0.4139566000085324,87.21757249999791,None,86.72141200001352,87.23412619999726,,,,,,,,,,,,,0,001,2020_Jun_30_1059,ANT,2020.1.3,60.075719432858385,
stim/centre.png,stim/neutralRight.png,left,180,,,,,0,0,0,0,0,2,2,46,,,,,0.55,87.65005600001314,None,88.20197650001501,88.31619400001364,88.69967760000145,None,left,1,0.5754829999932554,88.69967760000145,None,88.20197650001501,88.71588910001446,,,,,,,,,,,,,0,001,2020_Jun_30_1059,ANT,2020.1.3,60.075719432858385,
stim/upper.png,stim/congRight.png,right,0,,,,,0,0,0,0,0,3,3,8,,,,,0.55,89.29875230000471,None,89.85327469999902,89.9651836999983,90.34813440000289,None,right,1,0.5981031999981496,90.34813440000289,None,89.85327469999902,90.36420989999897,,,,,,,,,,,,,0,001,2020_Jun_30_1059,ANT,2020.1.3,60.075719432858385,
stim/blank.png,stim/neutralRight.png,right,0,,,,,0,0,0,0,0,4,4,43,,,,,0.5,90.96528910001507,None,91.48497359998873,91.5963740000152,91.9803513000079,None,right,1,0.6582886000105646,91.9803513000079,None,91.48497359998873,91.99675690001459,,,,,,,,,,,,,0,001,2020_Jun_30_1059,ANT,2020.1.3,60.075719432858385,
stim/blank.png,stim/incongLeft.png,right,180,,,,,0,0,0,0,0,5,5,23,,,,,0.5,92.6637655000086,None,93.18345660000341,93.29547780001303,93.67858549999073,None,right,1,0.7643720000050962,93.67858549999073,None,93.18345660000341,93.69506570001249,,,,,,,,,,,,,0,001,2020_Jun_30_1059,ANT,2020.1.3,60.075719432858385,
stim/blank.png,stim/incongLeft.png,left,0,,,,,0,0,0,0,0,6,6,19,,,,,0.5,94.4613243000058,None,94.96560820000013,95.07743890001439,95.46069669999997,None,left,1,0.6312869999965187,95.46069669999997,None,94.96560820000013,95.47721270000329,,,,,,,,,,,,,0,001,2020_Jun_30_1059,ANT,2020.1.3,60.075719432858385,
stim/blank.png,stim/incongRight.png,left,180,,,,,0,0,0,0,0,7,7,31,,,,,0.5,96.10997580000549,None,96.61410629999591,96.7257845000131,97.10936329999822,None,left,1,0.7384328999905847,97.10936329999822,None,96.61410629999591,97.12590300000738,,,,,,,,,,,,,0,001,2020_Jun_30_1059,ANT,2020.1.3,60.075719432858385,
stim/both.png,stim/neutralRight.png,left,180,,,,,0,0,0,0,0,8,8,45,,,,,0.4,97.8758172999951,None,98.27921139998944,98.39152070001,98.77478279999923,None,left,1,0.5327606000064407,98.77478279999923,None,98.27921139998944,98.79091840001638,,,,,,,,,,,,,0,001,2020_Jun_30_1059,ANT,2020.1.3,60.075719432858385,
stim/centre.png,stim/congLeft.png,right,180,,,,,0,0,0,0,0,9,9,6,,,,,0.5,99.3238180000044,None,99.82323030001135,99.92332739999983,100.32309489999898,None,right,1,0.5293046000006143,100.32309489999898,None,99.82323030001135,100.32309489999898,,,,,,,,,,,,,0,001,2020_Jun_30_1059,ANT,2020.1.3,60.075719432858385,
stim/both.png,stim/congRight.png,left,180,,,,,0,0,0,0,0,10,10,13,,,,,0.55,100.8742690999934,None,101.44380969999474,101.55535149999196,101.93878419999965,None,left,1,0.5357433999888599,101.93878419999965,None,101.44380969999474,101.95501609999337,,,,,,,,,,,,,0,001,2020_Jun_30_1059,ANT,2020.1.3,60.075719432858385,
stim/lower.png,stim/incongLeft.png,right,180,,,,,0,0,0,0,0,11,11,20,,,,,0.45,102.50456040000427,None,102.95880319998832,103.07099609999568,103.453958099999,None,right,1,0.6611144999915268,103.453958099999,None,102.95880319998832,103.47060699999565,,,,,,,,,,,,,0,001,2020_Jun_30_1059,ANT,2020.1.3,60.075719432858385,
stim/lower.png,stim/neutralRight.png,left,180,,,,,0,0,0,0,0,12,12,44,,,,,0.4,104.1371780000045,None,104.55274559999816,104.65285380001296,105.03623590001371,None,left,1,0.5945895999902859,105.03623590001371,None,104.55274559999816,105.0528376000002,,,,,,,,,,,,,0,001,2020_Jun_30_1059,ANT,2020.1.3,60.075719432858385,
stim/blank.png,stim/congRight.png,right,0,,,,,0,0,0,0,0,13,13,11,,,,,0.55,105.65190060000168,None,106.2064992999949,106.31845290001365,106.70120159999351,None,right,1,0.559488800005056,106.70120159999351,None,106.2064992999949,106.71761540000443,,,,,,,,,,,,,0,001,2020_Jun_30_1059,ANT,2020.1.3,60.075719432858385,
stim/both.png,stim/congLeft.png,right,180,,,,,0,0,0,0,0,14,14,5,,,,,0.45,107.2841669000045,None,107.73599970000214,107.85004960000515,108.23362889999407,None,right,1,0.6644608000060543,108.23362889999407,None,107.73599970000214,108.25017630000366,,,,,,,,,,,,,0,001,2020_Jun_30_1059,ANT,2020.1.3,60.075719432858385,
stim/both.png,stim/incongRight.png,right,0,,,,,0,0,0,0,0,15,15,25,,,,,0.55,108.91717070000595,None,109.48714929999551,109.59866369998781,109.98190980000072,None,right,1,0.62587399999029,109.98190980000072,None,109.48714929999551,109.99858939999831,,,,,,,,,,,,,0,001,2020_Jun_30_1059,ANT,2020.1.3,60.075719432858385,
stim/blank.png,stim/congLeft.png,right,180,,,,,0,0,0,0,0,16,16,7,,,,,0.45,110.63117700000294,None,111.08526910000364,111.19773539999733,111.58022760000313,None,right,1,0.6143108000105713,111.58022760000313,None,111.08526910000364,111.59664969998994,,,,,,,,,,,,,0,001,2020_Jun_30_1059,ANT,2020.1.3,60.075719432858385,
stim/both.png,stim/neutralLeft.png,right,180,,,,,0,0,0,0,0,17,17,37,,,,,0.55,112.21425889999955,None,112.7792327000061,112.8792373999895,113.26267230001395,None,right,1,0.46966689999680966,113.26267230001395,None,112.7792327000061,113.27940100000706,,,,,,,,,,,,,0,001,2020_Jun_30_1059,ANT,2020.1.3,60.075719432858385,
stim/blank.png,stim/neutralRight.png,left,180,,,,,0,0,0,0,0,18,18,47,,,,,0.55,113.76213079999434,None,114.31587389999186,114.42811400000937,114.8115364999976,None,left,1,0.5439485999813769,114.8115364999976,None,114.31587389999186,114.82800109998789,,,,,,,,,,,,,0,001,2020_Jun_30_1059,ANT,2020.1.3,60.075719432858385,
stim/centre.png,stim/incongLeft.png,left,0,,,,,0,0,0,0,0,19,19,18,,,,,0.45,115.37779170001158,None,115.83177479999722,115.94392049999442,116.3262539000134,None,left,1,0.5330233999993652,116.3262539000134,None,115.83177479999722,116.34282419999363,,,,,,,,,,,,,0,001,2020_Jun_30_1059,ANT,2020.1.3,60.075719432858385,
stim/blank.png,stim/neutralLeft.png,right,180,,,,,0,0,0,0,0,20,20,39,,,,,0.4,116.87594140000874,None,117.28007549999165,117.39243330000318,117.77583070000401,None,right,1,0.5809447999927215,117.77583070000401,None,117.28007549999165,117.79216770001221,,,,,,,,,,,,,0,001,2020_Jun_30_1059,ANT,2020.1.3,60.075719432858385,
stim/lower.png,stim/congRight.png,left,180,,,,,0,0,0,0,0,21,21,12,,,,,0.5,118.3747704999987,None,118.87903479998931,118.99139969999669,119.37438970000949,None,left,1,0.5533806000021286,119.37438970000949,None,118.87903479998931,119.39103759999853,,,,,,,,,,,,,0,001,2020_Jun_30_1059,ANT,2020.1.3,60.075719432858385,
stim/centre.png,stim/neutralLeft.png,left,0,,,,,0,0,0,0,0,22,22,34,,,,,0.4,119.95683330000611,None,120.35970259999158,120.4730344999989,120.85675219999393,None,left,1,0.577116800006479,120.85675219999393,None,120.35970259999158,120.87307649999275,,,,,,,,,,,,,0,001,2020_Jun_30_1059,ANT,2020.1.3,60.075719432858385,
stim/centre.png,stim/congRight.png,left,180,,,,,0,0,0,0,0,23,23,14,,,,,0.45,121.45659330001217,None,121.92607849999331,122.03859820001526,122.42171029999736,None,left,1,0.5510496000060812,122.42171029999736,None,121.92607849999331,122.43848770001205,,,,,,,,,,,,,0,001,2020_Jun_30_1059,ANT,2020.1.3,60.075719432858385,
stim/both.png,stim/incongRight.png,left,180,,,,,0,0,0,0,0,24,24,29,,,,,0.5,122.98865889999433,None,123.50659189998987,123.62078810000094,124.00384379999014,None,left,1,0.5618296999891754,124.00384379999014,None,123.50659189998987,124.02052670001285,,,,,,,,,,,,,0,001,2020_Jun_30_1059,ANT,2020.1.3,60.075719432858385,
stim/lower.png,stim/incongRight.png,left,180,,,,,0,0,0,0,0,25,25,28,,,,,0.55,124.58616800000891,None,125.13995149999391,125.25279790000059,125.63576100001228,None,left,1,0.5671647000126541,125.63576100001228,None,125.13995149999391,125.65219620001153,,,,,,,,,,,,,0,001,2020_Jun_30_1059,ANT,2020.1.3,60.075719432858385,
stim/both.png,stim/congLeft.png,left,0,,,,,0,0,0,0,0,26,26,1,,,,,0.45,126.21988610000699,None,126.68924969999352,126.80134149998776,127.18453950001276,None,left,1,0.5600006000022404,127.18453950001276,None,126.68924969999352,127.20121269999072,,,,,,,,,,,,,0,001,2020_Jun_30_1059,ANT,2020.1.3,60.075719432858385,
stim/both.png,stim/congRight.png,right,0,,,,,0,0,0,0,0,27,27,9,,,,,0.4,127.76770990001387,None,128.18328990001464,128.28342500000144,128.66665639998973,None,right,1,0.6030025999934878,128.66665639998973,None,128.18328990001464,128.6830675000092,,,,,,,,,,,,,0,001,2020_Jun_30_1059,ANT,2020.1.3,60.075719432858385,
stim/blank.png,stim/neutralLeft.png,left,0,,,,,0,0,0,0,0,28,28,35,,,,,0.55,129.29884010000387,None,129.85183379999944,129.9654362000001,130.3484890999971,None,left,1,0.5421340000175405,130.3484890999971,None,129.85183379999944,130.3648799000075,,,,,,,,,,,,,0,001,2020_Jun_30_1059,ANT,2020.1.3,60.075719432858385,
stim/blank.png,stim/congRight.png,left,180,,,,,0,0,0,0,0,29,29,15,,,,,0.5,130.9145939000009,None,131.4195572999888,131.5306075999979,131.914237399993,None,left,1,0.9133708000008482,131.914237399993,None,131.4195572999888,131.9303702999896,,,,,,,,,,,,,0,001,2020_Jun_30_1059,ANT,2020.1.3,60.075719432858385,
stim/blank.png,stim/incongRight.png,right,0,,,,,0,0,0,0,0,30,30,27,,,,,0.4,132.84582210000372,None,133.2501780000166,133.36254319999716,133.74583420000272,None,right,1,0.6822963000158779,133.74583420000272,None,133.2501780000166,133.76226409999072,,,,,,,,,,,,,0,001,2020_Jun_30_1059,ANT,2020.1.3,60.075719432858385,
stim/upper.png,stim/neutralRight.png,right,0,,,,,0,0,0,0,0,31,31,40,,,,,0.4,134.44501900000614,None,134.8487504000077,134.96126700000605,135.34487359999912,None,right,1,0.5419968999922276,135.34487359999912,None,134.8487504000077,135.36102630000096,,,,,,,,,,,,,0,001,2020_Jun_30_1059,ANT,2020.1.3,60.075719432858385,
stim/centre.png,stim/incongRight.png,left,180,,,,,0,0,0,0,0,32,32,30,,,,,0.45,135.91083169999183,None,136.35976839999785,136.46007249999093,136.843314800004,None,left,1,0.6541339999821503,136.843314800004,None,136.35976839999785,136.8599954000092,,,,,,,,,,,,,0,001,2020_Jun_30_1059,ANT,2020.1.3,60.075719432858385,
stim/both.png,stim/neutralLeft.png,left,0,,,,,0,0,0,0,0,33,33,33,,,,,0.45,137.52533249999397,None,137.97968990000663,138.09216060000472,138.47544860001653,None,left,1,1.1423692000098526,138.47544860001653,None,137.97968990000663,138.4918195999926,,,,,,,,,,,,,0,001,2020_Jun_30_1059,ANT,2020.1.3,60.075719432858385,
stim/both.png,stim/neutralRight.png,right,0,,,,,0,0,0,0,0,34,34,41,,,,,0.45,139.64132500000414,None,140.09490630001528,140.20707870001206,140.59016359999077,None,right,1,0.5474550999933854,140.59016359999077,None,140.09490630001528,140.60675169999013,,,,,,,,,,,,,0,001,2020_Jun_30_1059,ANT,2020.1.3,60.075719432858385,
stim/centre.png,stim/incongRight.png,right,0,,,,,0,0,0,0,0,35,35,26,,,,,0.55,141.15587479999522,None,141.7092074000102,141.82222360000014,142.20550670000375,None,left,0,0.4225769000186119,142.20550670000375,None,141.7092074000102,142.22189960000105,,,,,,,,,,,,,0,001,2020_Jun_30_1059,ANT,2020.1.3,60.075719432858385,
stim/lower.png,stim/neutralLeft.png,right,180,,,,,0,0,0,0,0,36,36,36,,,,,0.4,142.65539279999211,None,143.05714499999885,143.1714462999953,143.55442040000344,None,right,1,0.6523886000213679,143.55442040000344,None,143.05714499999885,143.57070780001231,,,,,,,,,,,,,0,001,2020_Jun_30_1059,ANT,2020.1.3,60.075719432858385,
stim/upper.png,stim/congLeft.png,left,0,,,,,0,0,0,0,0,37,37,0,,,,,0.55,144.23715719999745,None,144.79042870001285,144.90305839999928,145.28660520000267,None,left,1,0.47758669999893755,145.28660520000267,None,144.79042870001285,145.3030953000125,,,,,,,,,,,,,0,001,2020_Jun_30_1059,ANT,2020.1.3,60.075719432858385,
stim/lower.png,stim/congLeft.png,right,180,,,,,0,0,0,0,0,38,38,4,,,,,0.4,145.7853102000081,None,146.19025869999314,146.30216170000494,146.685281699989,None,right,1,0.6056709999975283,146.685281699989,None,146.19025869999314,146.70177220000187,,,,,,,,,,,,,0,001,2020_Jun_30_1059,ANT,2020.1.3,60.075719432858385,
stim/centre.png,stim/incongLeft.png,right,180,,,,,0,0,0,0,0,39,39,22,,,,,0.55,147.3179014000052,None,147.870785600011,147.98421990001225,148.36714009998832,None,right,1,0.7697572000033688,148.36714009998832,None,147.870785600011,148.3836375999963,,,,,,,,,,,,,0,001,2020_Jun_30_1059,ANT,2020.1.3,60.075719432858385,
stim/blank.png,stim/congLeft.png,left,0,,,,,0,0,0,0,0,40,40,3,,,,,0.55,149.16629829999874,None,149.72141110000666,149.8326081999985,150.21562490001088,None,left,1,0.7679309000086505,150.21562490001088,None,149.72141110000666,150.23225510001066,,,,,,,,,,,,,0,001,2020_Jun_30_1059,ANT,2020.1.3,60.075719432858385,
stim/upper.png,stim/incongLeft.png,left,0,,,,,0,0,0,0,0,41,41,16,,,,,0.4,151.0153641999932,None,151.4188117000158,151.5309630999982,151.91422310000053,None,left,1,0.6172553999931552,151.91422310000053,None,151.4188117000158,151.93070630001603,,,,,,,,,,,,,0,001,2020_Jun_30_1059,ANT,2020.1.3,60.075719432858385,
stim/centre.png,stim/congLeft.png,left,0,,,,,0,0,0,0,0,42,42,2,,,,,0.4,152.54727820001426,None,152.96293159999186,153.06300799999735,153.44620539998868,None,left,1,0.488406299991766,153.44620539998868,None,152.96293159999186,153.46277230000123,,,,,,,,,,,,,0,001,2020_Jun_30_1059,ANT,2020.1.3,60.075719432858385,
stim/both.png,stim/incongLeft.png,left,0,,,,,0,0,0,0,0,43,43,17,,,,,0.55,153.9618926999974,None,154.51663580001332,154.62835790001554,155.01167539999005,None,left,1,0.4920091000094544,155.01167539999005,None,154.51663580001332,155.02822350000497,,,,,,,,,,,,,0,001,2020_Jun_30_1059,ANT,2020.1.3,60.075719432858385,
stim/upper.png,stim/neutralLeft.png,left,0,,,,,0,0,0,0,0,44,44,32,,,,,0.4,155.52841659999103,None,155.93146120000165,156.04405910000787,156.4272697000124,None,left,1,0.49582620000001043,156.4272697000124,None,155.93146120000165,156.44382829999086,,,,,,,,,,,,,0,001,2020_Jun_30_1059,ANT,2020.1.3,60.075719432858385,
stim/centre.png,stim/neutralLeft.png,right,180,,,,,0,0,0,0,0,45,45,38,,,,,0.5,156.94527230001404,None,157.46186050001415,157.57618329999968,157.95933979999973,None,left,0,0.5568348999950103,157.95933979999973,None,157.46186050001415,157.97566640001605,,,,,,,,,,,,,0,001,2020_Jun_30_1059,ANT,2020.1.3,60.075719432858385,
stim/upper.png,stim/incongRight.png,right,0,,,,,0,0,0,0,0,46,46,24,,,,,0.5,158.54194719999214,None,159.0451880999899,159.15805349999573,159.5412433000165,None,right,1,0.5947744000004604,159.5412433000165,None,159.0451880999899,159.5577767000068,,,,,,,,,,,,,0,001,2020_Jun_30_1059,ANT,2020.1.3,60.075719432858385,
stim/both.png,stim/incongLeft.png,right,180,,,,,0,0,0,0,0,47,47,21,,,,,0.5,160.15715929999715,None,160.65987120001228,160.77344530000119,161.15657890000148,None,right,1,0.6608428000181448,161.15657890000148,None,160.65987120001228,161.1726628000033,,,,,,,,,,,,,0,001,2020_Jun_30_1059,ANT,2020.1.3,60.075719432858385,
stim/both.png,stim/neutralRight.png,left,180,,,,,0,0,0,0,1,0,48,45,,,,,0.45,161.84036180001567,None,162.3093544000003,162.4215482000145,162.8052033999993,None,left,1,0.546793899993645,162.8052033999993,None,162.3093544000003,162.82175380000263,,,,,,,,,,,,,0,001,2020_Jun_30_1059,ANT,2020.1.3,60.075719432858385,
stim/blank.png,stim/neutralLeft.png,left,0,,,,,0,0,0,0,1,1,49,35,,,,,0.45,163.3728598000016,None,163.84168179999688,163.95445469999686,164.33731120001175,None,left,1,0.6104212999925949,164.33731120001175,None,163.84168179999688,164.3538574000122,,,,,,,,,,,,,0,001,2020_Jun_30_1059,ANT,2020.1.3,60.075719432858385,
stim/blank.png,stim/incongLeft.png,left,0,,,,,0,0,0,0,1,2,50,19,,,,,0.4,164.97018770000432,None,165.372031100007,165.48638419999043,165.86900649999734,None,left,1,0.5305532999918796,165.86900649999734,None,165.372031100007,165.88537999999244,,,,,,,,,,,,,0,001,2020_Jun_30_1059,ANT,2020.1.3,60.075719432858385,
stim/blank.png,stim/incongRight.png,right,0,,,,,0,0,0,0,1,3,51,27,,,,,0.4,166.41939419999835,None,166.82087850000244,166.93520129998797,167.31818900001235,None,right,1,0.6191377000068314,167.31818900001235,None,166.82087850000244,167.33466530000442,,,,,,,,,,,,,0,001,2020_Jun_30_1059,ANT,2020.1.3,60.075719432858385,
stim/blank.png,stim/neutralRight.png,right,0,,,,,0,0,0,0,1,4,52,43,,,,,0.5,167.96743819999392,None,168.47104420000687,168.58367150000413,168.96691160000046,None,right,1,0.5310467000235803,168.96691160000046,None,168.47104420000687,168.9835052000126,,,,,,,,,,,,,0,001,2020_Jun_30_1059,ANT,2020.1.3,60.075719432858385,
stim/lower.png,stim/congRight.png,left,180,,,,,0,0,0,0,1,5,53,12,,,,,0.5,169.5161783999938,None,170.02531319999252,170.13277389999712,170.51539129999583,None,left,1,0.7192857000045478,170.51539129999583,None,170.02531319999252,170.53187139998772,,,,,,,,,,,,,0,001,2020_Jun_30_1059,ANT,2020.1.3,60.075719432858385,
stim/both.png,stim/congLeft.png,right,180,,,,,0,0,0,0,1,6,54,5,,,,,0.5,171.26472199999262,None,171.7641689000011,171.86424600001192,172.24763200001325,None,right,1,0.5885743999970146,172.24763200001325,None,171.7641689000011,172.26427039998816,,,,,,,,,,,,,0,001,2020_Jun_30_1059,ANT,2020.1.3,60.075719432858385,
stim/lower.png,stim/neutralRight.png,left,180,,,,,0,0,0,0,1,7,55,44,,,,,0.4,172.8644484000106,None,173.2838849000109,173.39635049999924,173.77981360000558,None,left,1,0.6574841999972705,173.77981360000558,None,173.2838849000109,173.79623169999104,,,,,,,,,,,,,0,001,2020_Jun_30_1059,ANT,2020.1.3,60.075719432858385,
stim/blank.png,stim/congRight.png,left,180,,,,,0,0,0,0,1,8,56,15,,,,,0.45,174.4624870000116,None,174.91612750000786,175.02863029998844,175.41118920000736,None,left,1,0.5986417999956757,175.41118920000736,None,174.91612750000786,175.42750640001032,,,,,,,,,,,,,0,001,2020_Jun_30_1059,ANT,2020.1.3,60.075719432858385,
stim/centre.png,stim/congLeft.png,right,180,,,,,0,0,0,0,1,9,57,6,,,,,0.45,176.02926440001465,None,176.49356309999712,176.5932882000052,176.976605200005,None,right,1,0.6706700000213459,176.976605200005,None,176.49356309999712,176.9931835999887,,,,,,,,,,,,,0,001,2020_Jun_30_1059,ANT,2020.1.3,60.075719432858385,
stim/both.png,stim/congLeft.png,left,0,,,,,0,0,0,0,1,10,58,1,,,,,0.5,177.67574989999412,None,178.1756299000117,178.27529499999946,178.6584947000083,None,left,1,0.6375852999917697,178.6584947000083,None,178.1756299000117,178.67488929998945,,,,,,,,,,,,,0,001,2020_Jun_30_1059,ANT,2020.1.3,60.075719432858385,
stim/blank.png,stim/congLeft.png,left,0,,,,,0,0,0,0,1,11,59,3,,,,,0.4,179.32442849999643,None,179.72429909999482,179.82395290001296,180.20785000000615,None,left,1,0.730829599982826,180.20785000000615,None,179.72429909999482,180.22443329999805,,,,,,,,,,,,,0,001,2020_Jun_30_1059,ANT,2020.1.3,60.075719432858385,
stim/centre.png,stim/incongLeft.png,left,0,,,,,0,0,0,0,1,12,60,18,,,,,0.45,180.9590390000085,None,181.423028899997,181.52262750000227,181.92272319999756,None,left,1,0.7409077999764122,181.92272319999756,None,181.423028899997,181.92272319999756,,,,,,,,,,,,,0,001,2020_Jun_30_1059,ANT,2020.1.3,60.075719432858385,
stim/both.png,stim/neutralLeft.png,right,180,,,,,0,0,0,0,1,13,61,37,,,,,0.4,182.68843670000206,None,183.08822549998877,183.18790340001578,183.57119119999697,None,None,0,,183.57119119999697,None,183.08822549998877,183.5877649000031,,,,,,,,,,,,,0,001,2020_Jun_30_1059,ANT,2020.1.3,60.075719432858385,
stim/centre.png,stim/neutralRight.png,left,180,,,,,0,0,0,0,1,14,62,46,,,,,0.5,185.08666800000356,None,185.58612160000484,185.68592320001335,186.06896390000475,None,left,1,0.5631142999918666,186.06896390000475,None,185.58612160000484,186.08541820000391,,,,,,,,,,,,,0,001,2020_Jun_30_1059,ANT,2020.1.3,60.075719432858385,
stim/upper.png,stim/congRight.png,right,0,,,,,0,0,0,0,1,15,63,8,,,,,0.5,186.6516501000151,None,187.15649280001526,187.2683238000027,187.6514826999919,None,right,1,0.6355853999848478,187.6514826999919,None,187.15649280001526,187.66825409999,,,,,,,,,,,,,0,001,2020_Jun_30_1059,ANT,2020.1.3,60.075719432858385,
stim/upper.png,stim/neutralLeft.png,left,0,,,,,0,0,0,0,1,16,64,32,,,,,0.4,188.31733700001496,None,188.72185070000705,188.83385409999755,189.21679010000662,None,left,1,0.4627993000030983,189.21679010000662,None,188.72185070000705,189.23312940000324,,,,,,,,,,,,,0,001,2020_Jun_30_1059,ANT,2020.1.3,60.075719432858385,
stim/centre.png,stim/congLeft.png,left,0,,,,,0,0,0,0,1,17,65,2,,,,,0.5,189.69966899999417,None,190.20354869999574,190.3157094999915,190.6989765999897,None,left,1,0.5445333999814466,190.6989765999897,None,190.20354869999574,190.71541199999047,,,,,,,,,,,,,0,001,2020_Jun_30_1059,ANT,2020.1.3,60.075719432858385,
stim/blank.png,stim/neutralLeft.png,right,180,,,,,0,0,0,0,1,18,66,39,,,,,0.45,191.26534260000335,None,191.71472019999055,191.814738999994,192.19781469998998,None,right,1,0.8927106999908574,192.19781469998998,None,191.71472019999055,192.2144682999933,,,,,,,,,,,,,0,001,2020_Jun_30_1059,ANT,2020.1.3,60.075719432858385,
stim/blank.png,stim/incongRight.png,left,180,,,,,0,0,0,0,1,19,67,31,,,,,0.5,193.11418070000946,None,193.6344495000085,193.7464919000049,194.12975220000953,None,left,1,0.6716841000015847,194.12975220000953,None,193.6344495000085,194.14593709999463,,,,,,,,,,,,,0,001,2020_Jun_30_1059,ANT,2020.1.3,60.075719432858385,
stim/upper.png,stim/incongLeft.png,left,0,,,,,0,0,0,0,1,20,68,16,,,,,0.45,194.82878849998815,None,195.2803358999954,195.39505630001076,195.77811620000284,None,left,1,0.6880287999811117,195.77811620000284,None,195.2803358999954,195.79457430000184,,,,,,,,,,,,,0,001,2020_Jun_30_1059,ANT,2020.1.3,60.075719432858385,
stim/centre.png,stim/neutralLeft.png,left,0,,,,,0,0,0,0,1,21,69,34,,,,,0.4,196.4948226000124,None,196.8972522999975,197.01005869999062,197.39376070001163,None,left,1,0.4725656000082381,197.39376070001163,None,196.8972522999975,197.4101140999992,,,,,,,,,,,,,0,001,2020_Jun_30_1059,ANT,2020.1.3,60.075719432858385,
stim/both.png,stim/incongRight.png,left,180,,,,,0,0,0,0,1,22,70,29,,,,,0.4,197.89278729999205,None,198.29831730001024,198.4091338000144,198.79195189999882,None,right,0,0.47879480000119656,198.79195189999882,None,198.29831730001024,198.80841759999748,,,,,,,,,,,,,0,001,2020_Jun_30_1059,ANT,2020.1.3,60.075719432858385,
stim/lower.png,stim/congLeft.png,right,180,,,,,0,0,0,0,1,23,71,4,,,,,0.45,199.29170500001055,None,199.7437390999985,199.85801009999705,200.24075090000406,None,right,1,0.5619972000131384,200.24075090000406,None,199.7437390999985,200.25714199998765,,,,,,,,,,,,,0,001,2020_Jun_30_1059,ANT,2020.1.3,60.075719432858385,
stim/both.png,stim/neutralRight.png,right,0,,,,,0,0,0,0,1,24,72,41,,,,,0.55,200.82415090000723,None,201.37745050000376,201.4900059000065,201.87338900001487,None,right,1,0.5271287999930792,201.87338900001487,None,201.37745050000376,201.88956690000487,,,,,,,,,,,,,0,001,2020_Jun_30_1059,ANT,2020.1.3,60.075719432858385,
stim/both.png,stim/incongLeft.png,left,0,,,,,0,0,0,0,1,25,73,17,,,,,0.4,202.42285189998802,None,202.82685119999223,202.93900929999654,203.32191389999934,None,left,1,0.5439400000032037,203.32191389999934,None,202.82685119999223,203.33837969999877,,,,,,,,,,,,,0,001,2020_Jun_30_1059,ANT,2020.1.3,60.075719432858385,
stim/both.png,stim/neutralLeft.png,left,0,,,,,0,0,0,0,1,26,74,33,,,,,0.4,203.88797079998767,None,204.29213300000993,204.40445790000376,204.78739479999058,None,left,1,0.4393143999914173,204.78739479999058,None,204.29213300000993,204.80415509999148,,,,,,,,,,,,,0,001,2020_Jun_30_1059,ANT,2020.1.3,60.075719432858385,
stim/centre.png,stim/neutralLeft.png,right,180,,,,,0,0,0,0,1,27,75,38,,,,,0.5,205.25482170001487,None,205.77467969999998,205.88609849999193,206.26971120000235,None,right,1,0.6270527000015136,206.26971120000235,None,205.77467969999998,206.28619159999653,,,,,,,,,,,,,0,001,2020_Jun_30_1059,ANT,2020.1.3,60.075719432858385,
stim/blank.png,stim/congLeft.png,right,180,,,,,0,0,0,0,1,28,76,7,,,,,0.4,206.9194562000048,None,207.3396664999891,207.45188090001466,207.8348779999942,None,right,1,0.5641052999999374,207.8348779999942,None,207.3396664999891,207.85154239999247,,,,,,,,,,,,,0,001,2020_Jun_30_1059,ANT,2020.1.3,60.075719432858385,
stim/centre.png,stim/congRight.png,left,180,,,,,0,0,0,0,1,29,77,14,,,,,0.55,208.4181341000076,None,208.9736813000054,209.08397770000738,209.4670468000113,None,left,1,0.49705080001149327,209.4670468000113,None,208.9736813000054,209.48365020001074,,,,,,,,,,,,,0,001,2020_Jun_30_1059,ANT,2020.1.3,60.075719432858385,
stim/centre.png,stim/incongLeft.png,right,180,,,,,0,0,0,0,1,30,78,22,,,,,0.4,209.98338680001325,None,210.38767930000904,210.49950639999588,210.88259900000412,None,right,1,0.6313660999876447,210.88259900000412,None,210.38767930000904,210.89895199998864,,,,,,,,,,,,,0,001,2020_Jun_30_1059,ANT,2020.1.3,60.075719432858385,
stim/centre.png,stim/incongRight.png,right,0,,,,,0,0,0,0,1,31,79,26,,,,,0.5,211.5316759000125,None,212.04572150000604,212.14792310001212,212.5313157000055,None,right,1,0.7814714999985881,212.5313157000055,None,212.04572150000604,212.54774080001516,,,,,,,,,,,,,0,001,2020_Jun_30_1059,ANT,2020.1.3,60.075719432858385,
stim/upper.png,stim/congLeft.png,left,0,,,,,0,0,0,0,1,32,80,0,,,,,0.45,213.3301255000115,None,213.7843981999904,213.89637010000297,214.2799032999901,None,left,1,0.48917519999668,214.2799032999901,None,213.7843981999904,214.29631450001034,,,,,,,,,,,,,0,001,2020_Jun_30_1059,ANT,2020.1.3,60.075719432858385,
stim/lower.png,stim/neutralLeft.png,right,180,,,,,0,0,0,0,1,33,81,36,,,,,0.55,214.79575330001535,None,215.36204310000176,215.46209419998922,215.84494700000505,None,right,1,0.5686974999844097,215.84494700000505,None,215.36204310000176,215.86135019999347,,,,,,,,,,,,,0,001,2020_Jun_30_1059,ANT,2020.1.3,60.075719432858385,
stim/both.png,stim/congRight.png,right,0,,,,,0,0,0,0,1,34,82,9,,,,,0.55,216.44389990001218,None,216.997506899992,217.11037300000316,217.49364590001642,None,right,1,0.5405282999854535,217.49364590001642,None,216.997506899992,217.51029669999843,,,,,,,,,,,,,0,001,2020_Jun_30_1059,ANT,2020.1.3,60.075719432858385,
stim/lower.png,stim/incongLeft.png,right,180,,,,,0,0,0,0,1,35,83,20,,,,,0.4,218.06028470001183,None,218.4639446999936,218.5762386000133,218.95940890000202,None,left,0,0.5338941999943927,218.95940890000202,None,218.4639446999936,218.97561620001215,,,,,,,,,,,,,0,001,2020_Jun_30_1059,ANT,2020.1.3,60.075719432858385,
stim/lower.png,stim/incongRight.png,left,180,,,,,0,0,0,0,1,36,84,28,,,,,0.5,219.5090782000043,None,220.02445409999928,220.12459970000782,220.50766490001115,None,right,0,0.4307834000210278,220.50766490001115,None,220.02445409999928,220.52443429999403,,,,,,,,,,,,,0,001,2020_Jun_30_1059,ANT,2020.1.3,60.075719432858385,
stim/centre.png,stim/congRight.png,right,0,,,,,0,0,0,0,1,37,85,10,,,,,0.5,220.957725699991,None,221.4616764000093,221.57341889999225,221.95686579999165,None,right,1,0.4422313999966718,221.95686579999165,None,221.4616764000093,221.97309439998935,,,,,,,,,,,,,0,001,2020_Jun_30_1059,ANT,2020.1.3,60.075719432858385,
stim/both.png,stim/incongRight.png,right,0,,,,,0,0,0,0,1,38,86,25,,,,,0.4,222.42257930000778,None,222.8271187999926,222.93920980000985,223.32208030001493,None,left,0,0.42943540000123903,223.32208030001493,None,222.8271187999926,223.33889360001194,,,,,,,,,,,,,0,001,2020_Jun_30_1059,ANT,2020.1.3,60.075719432858385,
stim/blank.png,stim/incongLeft.png,right,180,,,,,0,0,0,0,1,39,87,23,,,,,0.45,223.7722444999963,None,224.22545220001484,224.33793209999567,224.72047790000215,None,right,1,0.5012717000208795,224.72047790000215,None,224.22545220001484,224.73720199998934,,,,,,,,,,,,,0,001,2020_Jun_30_1059,ANT,2020.1.3,60.075719432858385,
stim/centre.png,stim/incongRight.png,left,180,,,,,0,0,0,0,1,40,88,30,,,,,0.5,225.23818119999487,None,225.7607857999974,225.86990560000413,226.25295200000983,None,right,0,0.32106760001624934,226.25295200000983,None,225.7607857999974,226.26986339999712,,,,,,,,,,,,,0,001,2020_Jun_30_1059,ANT,2020.1.3,60.075719432858385,
stim/both.png,stim/congRight.png,left,180,,,,,0,0,0,0,1,41,89,13,,,,,0.5,226.6044927999901,None,227.11868469999172,227.2190077000123,227.60226370001328,None,left,1,0.3581673000007868,227.60226370001328,None,227.11868469999172,227.61869170001592,,,,,,,,,,,,,0,001,2020_Jun_30_1059,ANT,2020.1.3,60.075719432858385,
stim/blank.png,stim/neutralRight.png,left,180,,,,,0,0,0,0,1,42,90,47,,,,,0.5,227.98489469999913,None,228.48897420000867,228.60099060001085,228.98419540000032,None,left,1,0.5604723999858834,228.98419540000032,None,228.48897420000867,229.00096979999216,,,,,,,,,,,,,0,001,2020_Jun_30_1059,ANT,2020.1.3,60.075719432858385,
stim/upper.png,stim/incongRight.png,right,0,,,,,0,0,0,0,1,43,91,24,,,,,0.55,229.56668290001107,None,230.1210301000101,230.23318440001458,230.6157407000137,None,left,0,0.521234000014374,230.6157407000137,None,230.1210301000101,230.63211770000635,,,,,,,,,,,,,0,001,2020_Jun_30_1059,ANT,2020.1.3,60.075719432858385,
stim/centre.png,stim/neutralRight.png,right,0,,,,,0,0,0,0,1,44,92,42,,,,,0.45,231.1654780000099,None,231.6172796000028,231.73164400001406,232.11487560000387,None,left,0,0.4372070000099484,232.11487560000387,None,231.6172796000028,232.13134409999475,,,,,,,,,,,,,0,001,2020_Jun_30_1059,ANT,2020.1.3,60.075719432858385,
stim/upper.png,stim/neutralRight.png,right,0,,,,,0,0,0,0,1,45,93,40,,,,,0.45,232.58097650000127,None,233.03061859999434,233.13101559999632,233.51387759999488,None,right,1,0.40240069999708794,233.51387759999488,None,233.03061859999434,233.53049150001607,,,,,,,,,,,,,0,001,2020_Jun_30_1059,ANT,2020.1.3,60.075719432858385,
stim/both.png,stim/incongLeft.png,right,180,,,,,0,0,0,0,1,46,94,21,,,,,0.5,233.9465596000082,None,234.4518148000061,234.56300540000666,234.9459921999951,None,right,1,0.46283130001393147,234.9459921999951,None,234.4518148000061,234.9625679999881,,,,,,,,,,,,,0,001,2020_Jun_30_1059,ANT,2020.1.3,60.075719432858385,
stim/blank.png,stim/congRight.png,right,0,,,,,0,0,0,0,1,47,95,11,,,,,0.5,235.42831499999738,None,235.93154819999472,236.04507779999403,236.42813690000912,None,right,1,0.5218955999880563,236.42813690000912,None,235.93154819999472,236.44438510001055,,,,,,,,,,,,,0,001,2020_Jun_30_1059,ANT,2020.1.3,60.075719432858385,
,,,,,,,,0,0,0,0,,,,,,,,,,,,,,,,,,,,,,,,,,,,,,,236.97974670000258,None,,,0,001,2020_Jun_30_1059,ANT,2020.1.3,60.075719432858385,
stim/centre.png,stim/neutralLeft.png,left,0,,,,,1,0,1,0,0,0,0,34,,,,,0.5,240.66169400000945,None,241.18091660001664,241.29043540000566,241.6740739000088,None,left,1,0.5827787999878637,241.6740739000088,None,241.18091660001664,241.69047490000958,,,,,,,,,,,,,0,001,2020_Jun_30_1059,ANT,2020.1.3,60.075719432858385,
stim/centre.png,stim/incongRight.png,right,0,,,,,1,0,1,0,0,1,1,26,,,,,0.5,242.27543489998789,None,242.79491830000188,242.90589439999894,243.2890691999928,None,left,0,0.4735917999933008,243.2890691999928,None,242.79491830000188,243.3057567999931,,,,,,,,,,,,,0,001,2020_Jun_30_1059,ANT,2020.1.3,60.075719432858385,
stim/upper.png,stim/neutralLeft.png,left,0,,,,,1,0,1,0,0,2,2,32,,,,,0.55,243.78839639999205,None,244.3431525999913,244.45489379999344,244.8374397000007,None,left,1,0.6036488999961875,244.8374397000007,None,244.3431525999913,244.85383340000408,,,,,,,,,,,,,0,001,2020_Jun_30_1059,ANT,2020.1.3,60.075719432858385,
stim/upper.png,stim/incongRight.png,right,0,,,,,1,0,1,0,0,3,3,24,,,,,0.4,245.47258679999504,None,245.89130769998883,246.0032074000046,246.38689530000556,None,right,1,0.49461429999792017,246.38689530000556,None,245.89130769998883,246.40320729999803,,,,,,,,,,,,,0,001,2020_Jun_30_1059,ANT,2020.1.3,60.075719432858385,
stim/blank.png,stim/incongLeft.png,left,0,,,,,1,0,1,0,0,4,4,19,,,,,0.5,246.90931580000324,None,247.42565849999664,247.53566419999697,247.90199129999382,None,left,1,0.5353276999958325,247.90199129999382,None,247.42565849999664,247.93540839999332,,,,,,,,,,,,,0,001,2020_Jun_30_1059,ANT,2020.1.3,60.075719432858385,
stim/blank.png,stim/neutralLeft.png,right,180,,,,,1,0,1,0,0,5,5,39,,,,,0.45,248.46794339999906,None,248.9220379999897,249.0344555999909,249.41750750000938,None,right,1,0.7227394999936223,249.41750750000938,None,248.9220379999897,249.4340336000023,,,,,,,,,,,,,0,001,2020_Jun_30_1059,ANT,2020.1.3,60.075719432858385,
stim/centre.png,stim/congRight.png,left,180,,,,,1,0,1,0,0,6,6,14,,,,,0.55,250.16694250001456,None,250.71596450000652,250.81574449999607,251.21573419999913,None,left,1,0.5627048000169452,251.21573419999913,None,250.71596450000652,251.21573419999913,,,,,,,,,,,,,0,001,2020_Jun_30_1059,ANT,2020.1.3,60.075719432858385,
stim/blank.png,stim/neutralLeft.png,left,0,,,,,1,0,1,0,0,7,7,35,,,,,0.55,251.7988994999905,None,252.35215530000278,252.46473599999445,252.84823870001128,None,left,1,0.5802211999834981,252.84823870001128,None,252.35215530000278,252.86444050000864,,,,,,,,,,,,,0,001,2020_Jun_30_1059,ANT,2020.1.3,60.075719432858385,
stim/upper.png,stim/congLeft.png,left,0,,,,,1,0,1,0,0,8,8,0,,,,,0.5,253.44730050000362,None,253.9510292999912,254.06366630000412,254.4462928000139,None,None,0,,254.4462928000139,None,253.9510292999912,254.46320920001017,,,,,,,,,,,,,0,001,2020_Jun_30_1059,ANT,2020.1.3,60.075719432858385,
stim/both.png,stim/incongLeft.png,left,0,,,,,1,0,1,0,0,9,9,17,,,,,0.45,255.96205070000724,None,256.41590680001536,256.5282814000093,256.91125130001456,None,left,1,0.564799599989783,256.91125130001456,None,256.41590680001536,256.92797359998804,,,,,,,,,,,,,0,001,2020_Jun_30_1059,ANT,2020.1.3,60.075719432858385,
stim/both.png,stim/incongLeft.png,right,180,,,,,1,0,1,0,0,10,10,21,,,,,0.55,257.49407610000344,None,258.04512250001426,258.160283300007,258.54328610000084,None,right,1,1.083956800022861,258.54328610000084,None,258.04512250001426,258.5597628999967,,,,,,,,,,,,,0,001,2020_Jun_30_1059,ANT,2020.1.3,60.075719432858385,
stim/both.png,stim/neutralLeft.png,right,180,,,,,1,0,1,0,0,11,11,37,,,,,0.5,259.659273199999,None,260.1616282000032,260.2745462000021,260.6584181000071,None,right,1,0.4519725000136532,260.6584181000071,None,260.1616282000032,260.67489369999385,,,,,,,,,,,,,0,001,2020_Jun_30_1059,ANT,2020.1.3,60.075719432858385,
stim/blank.png,stim/incongRight.png,right,0,,,,,1,0,1,0,0,12,12,27,,,,,0.5,261.14109419999295,None,261.64794729999267,261.75726569999824,262.1401893000002,None,left,0,0.5093053999880794,262.1401893000002,None,261.64794729999267,262.15653730000486,,,,,,,,,,,,,0,001,2020_Jun_30_1059,ANT,2020.1.3,60.075719432858385,
stim/upper.png,stim/neutralRight.png,right,0,,,,,1,0,1,0,0,13,13,40,,,,,0.5,262.672773600003,None,263.17635779999546,263.28932060001534,263.6724430999893,None,right,1,0.39895469998009503,263.6724430999893,None,263.17635779999546,263.68880520001403,,,,,,,,,,,,,0,001,2020_Jun_30_1059,ANT,2020.1.3,60.075719432858385,
stim/blank.png,stim/congLeft.png,left,0,,,,,1,0,1,0,0,14,14,3,,,,,0.4,264.0884660000156,None,264.4928959000099,264.6050302000076,264.987354300014,None,right,0,0.4152555000036955,264.987354300014,None,264.4928959000099,265.0038949000009,,,,,,,,,,,,,0,001,2020_Jun_30_1059,ANT,2020.1.3,60.075719432858385,
stim/centre.png,stim/congLeft.png,right,180,,,,,1,0,1,0,0,15,15,6,,,,,0.4,265.4203586000076,None,265.82342229998903,265.93696709998767,266.3201165999926,None,right,1,0.5646391999907792,266.3201165999926,None,265.82342229998903,266.33676579999155,,,,,,,,,,,,,0,001,2020_Jun_30_1059,ANT,2020.1.3,60.075719432858385,
stim/both.png,stim/neutralRight.png,left,180,,,,,1,0,1,0,0,16,16,45,,,,,0.45,266.90518229999,None,267.36911410000175,267.46904039999936,267.85246759999427,None,left,1,0.6797685000055935,267.85246759999427,None,267.36911410000175,267.8688250000123,,,,,,,,,,,,,0,001,2020_Jun_30_1059,ANT,2020.1.3,60.075719432858385,
stim/blank.png,stim/congLeft.png,right,180,,,,,1,0,1,0,0,17,17,7,,,,,0.45,268.5513675000111,None,269.0053884999943,269.1176994999987,269.50109430000884,None,right,1,0.49030449998099357,269.50109430000884,None,269.0053884999943,269.51764030000777,,,,,,,,,,,,,0,001,2020_Jun_30_1059,ANT,2020.1.3,60.075719432858385,
stim/both.png,stim/neutralLeft.png,left,0,,,,,1,0,1,0,0,18,18,33,,,,,0.45,270.0176064000116,None,270.49173050001264,270.5999727000017,270.98328929999843,None,left,1,0.5439714000094682,270.98328929999843,None,270.49173050001264,270.99968219999573,,,,,,,,,,,,,0,001,2020_Jun_30_1059,ANT,2020.1.3,60.075719432858385,
stim/both.png,stim/congLeft.png,left,0,,,,,1,0,1,0,0,19,19,1,,,,,0.5,271.5499388999888,None,272.06504419998964,272.1653501999972,272.5487078000151,None,left,1,0.37716470001032576,272.5487078000151,None,272.06504419998964,272.5651048000145,,,,,,,,,,,,,0,001,2020_Jun_30_1059,ANT,2020.1.3,60.075719432858385,
stim/centre.png,stim/neutralRight.png,left,180,,,,,1,0,1,0,0,20,20,46,,,,,0.4,272.94857519998914,None,273.3521752000088,273.46434999999474,273.84735500000534,None,left,1,0.5633206999918912,273.84735500000534,None,273.3521752000088,273.86366870001075,,,,,,,,,,,,,0,001,2020_Jun_30_1059,ANT,2020.1.3,60.075719432858385,
stim/centre.png,stim/neutralRight.png,right,0,,,,,1,0,1,0,0,21,21,42,,,,,0.45,274.42997580001247,None,274.8814906000043,274.9964769000071,275.37963340000715,None,left,0,0.47921980000683106,275.37963340000715,None,274.8814906000043,275.3961119999876,,,,,,,,,,,,,0,001,2020_Jun_30_1059,ANT,2020.1.3,60.075719432858385,
stim/upper.png,stim/incongLeft.png,left,0,,,,,1,0,1,0,0,22,22,16,,,,,0.45,275.87923419999424,None,276.33327639999334,276.44500209999387,276.82815360001405,None,right,0,0.337925500003621,276.82815360001405,None,276.33327639999334,276.8449374999909,,,,,,,,,,,,,0,001,2020_Jun_30_1059,ANT,2020.1.3,60.075719432858385,
stim/centre.png,stim/neutralLeft.png,right,180,,,,,1,0,1,0,0,23,23,38,,,,,0.55,277.19463710000855,None,277.7484706999967,277.8600599000056,278.2437152999919,None,left,0,0.3462643999955617,278.2437152999919,None,277.7484706999967,278.2604290000163,,,,,,,,,,,,,0,001,2020_Jun_30_1059,ANT,2020.1.3,60.075719432858385,
stim/lower.png,stim/congLeft.png,right,180,,,,,1,0,1,0,0,24,24,4,,,,,0.55,278.61007890000474,None,279.1592640999879,279.2592958000023,279.6428211000166,None,right,1,0.4152695999946445,279.6428211000166,None,279.1592640999879,279.65901249999297,,,,,,,,,,,,,0,001,2020_Jun_30_1059,ANT,2020.1.3,60.075719432858385,
stim/lower.png,stim/neutralLeft.png,right,180,,,,,1,0,1,0,0,25,25,36,,,,,0.4,280.075288299995,None,280.48057859999244,280.59158740000566,280.97486409998965,None,left,0,0.28750929998932406,280.97486409998965,None,280.48057859999244,280.9915383000043,,,,,,,,,,,,,0,001,2020_Jun_30_1059,ANT,2020.1.3,60.075719432858385,
stim/lower.png,stim/congRight.png,left,180,,,,,1,0,1,0,0,26,26,12,,,,,0.5,281.2909739000024,None,281.79507779999403,281.9074277000036,282.290379699989,None,left,1,0.24393580001196824,282.290379699989,None,281.79507779999403,282.30668320000404,,,,,,,,,,,,,0,001,2020_Jun_30_1059,ANT,2020.1.3,60.075719432858385,
stim/both.png,stim/congLeft.png,right,180,,,,,1,0,1,0,0,27,27,5,,,,,0.55,282.556275800016,None,283.11079159998917,283.22304650000297,283.6061608000018,None,left,0,0.2757874999952037,283.6061608000018,None,283.11079159998917,283.62241209999775,,,,,,,,,,,,,0,001,2020_Jun_30_1059,ANT,2020.1.3,60.075719432858385,
stim/blank.png,stim/incongRight.png,left,180,,,,,1,0,1,0,0,28,28,31,,,,,0.5,283.9056903999881,None,284.41085670000757,284.5219623000012,284.90485900000203,None,left,1,0.33629910001764074,284.90485900000203,None,284.41085670000757,284.9209830999898,,,,,,,,,,,,,0,001,2020_Jun_30_1059,ANT,2020.1.3,60.075719432858385,
stim/lower.png,stim/incongLeft.png,right,180,,,,,1,0,1,0,0,29,29,20,,,,,0.55,285.27116989999195,None,285.8249571000051,285.937398900016,286.3205891000107,None,left,0,0.41501190001145005,286.3205891000107,None,285.8249571000051,286.33678420001525,,,,,,,,,,,,,0,001,2020_Jun_30_1059,ANT,2020.1.3,60.075719432858385,
stim/both.png,stim/neutralRight.png,right,0,,,,,1,0,1,0,0,30,30,41,,,,,0.45,286.7543544000073,None,287.2250084000116,287.3356880999927,287.71944690000964,None,left,0,0.3393205000029411,287.71944690000964,None,287.2250084000116,287.7359878999996,,,,,,,,,,,,,0,001,2020_Jun_30_1059,ANT,2020.1.3,60.075719432858385,
stim/both.png,stim/congRight.png,right,0,,,,,1,0,1,0,0,31,31,9,,,,,0.4,288.08603539998876,None,288.50150620000204,288.60168789999443,288.9851872000145,None,left,0,1.231002200016519,288.9851872000145,None,288.50150620000204,289.0013174999913,,,,,,,,,,,,,0,001,2020_Jun_30_1059,ANT,2020.1.3,60.075719432858385,
stim/centre.png,stim/incongLeft.png,right,180,,,,,1,0,1,0,0,32,32,22,,,,,0.4,290.23466879999614,None,290.6539548000146,290.7665557000146,291.14970879998873,None,left,0,0.4899510000250302,291.14970879998873,None,290.6539548000146,291.1661473000131,,,,,,,,,,,,,0,001,2020_Jun_30_1059,ANT,2020.1.3,60.075719432858385,
stim/blank.png,stim/neutralRight.png,right,0,,,,,1,0,1,0,0,33,33,43,,,,,0.45,291.667953199998,None,292.13200979999965,292.23202150000725,292.61550230000285,None,right,1,0.8483512000238989,292.61550230000285,None,292.13200979999965,292.63197930000024,,,,,,,,,,,,,0,001,2020_Jun_30_1059,ANT,2020.1.3,60.075719432858385,
stim/blank.png,stim/congRight.png,right,0,,,,,1,0,1,0,0,34,34,11,,,,,0.45,293.48192520000157,None,293.95190270000603,294.06376190000447,294.4465954999905,None,right,1,0.4698893000022508,294.4465954999905,None,293.95190270000603,294.46305759999086,,,,,,,,,,,,,0,001,2020_Jun_30_1059,ANT,2020.1.3,60.075719432858385,
stim/blank.png,stim/incongLeft.png,right,180,,,,,1,0,1,0,0,35,35,23,,,,,0.55,294.9464728999883,None,295.5100437999936,295.6125660999969,295.9960629999987,None,right,1,1.0389053999970201,295.9960629999987,None,295.5100437999936,296.01246820000233,,,,,,,,,,,,,0,001,2020_Jun_30_1059,ANT,2020.1.3,60.075719432858385,
stim/both.png,stim/incongRight.png,right,0,,,,,1,0,1,0,0,36,36,25,,,,,0.4,297.0614168999891,None,297.46565009999904,297.57799009999144,297.96092879999196,None,right,1,0.32581710000522435,297.96092879999196,None,297.46565009999904,297.9768267000036,,,,,,,,,,,,,0,001,2020_Jun_30_1059,ANT,2020.1.3,60.075719432858385,
stim/centre.png,stim/incongRight.png,left,180,,,,,1,0,1,0,0,37,37,30,,,,,0.5,298.3117071999877,None,298.83225519998814,298.94345680001425,299.3262870000035,None,right,0,0.3551914999843575,299.3262870000035,None,298.83225519998814,299.3431300999946,,,,,,,,,,,,,0,001,2020_Jun_30_1059,ANT,2020.1.3,60.075719432858385,
stim/centre.png,stim/congLeft.png,left,0,,,,,1,0,1,0,0,38,38,2,,,,,0.4,299.7092004000151,None,300.1149078000162,300.2257618000149,300.60889959998894,None,left,1,0.3981513000035193,300.60889959998894,None,300.1149078000162,300.62540789999184,,,,,,,,,,,,,0,001,2020_Jun_30_1059,ANT,2020.1.3,60.075719432858385,
stim/upper.png,stim/congRight.png,right,0,,,,,1,0,1,0,0,39,39,8,,,,,0.4,301.02566909999587,None,301.4309777999879,301.5406015999906,301.92460550001124,None,left,0,0.3916292999929283,301.92460550001124,None,301.4309777999879,301.940975000005,,,,,,,,,,,,,0,001,2020_Jun_30_1059,ANT,2020.1.3,60.075719432858385,
stim/both.png,stim/congRight.png,left,180,,,,,1,0,1,0,0,40,40,13,,,,,0.45,302.3398784000019,None,302.7898628000112,302.88958069999353,303.2726748000132,None,right,0,0.3578577000007499,303.2726748000132,None,302.7898628000112,303.2891409000149,,,,,,,,,,,,,0,001,2020_Jun_30_1059,ANT,2020.1.3,60.075719432858385,
stim/both.png,stim/incongRight.png,left,180,,,,,1,0,1,0,0,41,41,29,,,,,0.55,303.6560681000119,None,304.21039459999884,304.3220375000092,304.7053395000112,None,left,1,0.34977689999504946,304.7053395000112,None,304.21039459999884,304.7220445999992,,,,,,,,,,,,,0,001,2020_Jun_30_1059,ANT,2020.1.3,60.075719432858385,
stim/lower.png,stim/neutralRight.png,left,180,,,,,1,0,1,0,0,42,42,44,,,,,0.45,305.0709604000149,None,305.52740680001443,305.63780269998824,306.0208005000022,None,left,1,0.37188389999209903,306.0208005000022,None,305.52740680001443,306.0372110999888,,,,,,,,,,,,,0,001,2020_Jun_30_1059,ANT,2020.1.3,60.075719432858385,
stim/lower.png,stim/incongRight.png,left,180,,,,,1,0,1,0,0,43,43,28,,,,,0.5,306.4204746999894,None,306.92443079999066,307.0367385999998,307.4192878000031,None,left,1,0.29903059999924153,307.4192878000031,None,306.92443079999066,307.4357913999993,,,,,,,,,,,,,0,001,2020_Jun_30_1059,ANT,2020.1.3,60.075719432858385,
stim/centre.png,stim/congRight.png,right,0,,,,,1,0,1,0,0,44,44,10,,,,,0.45,307.7359085000062,None,308.1938031000027,308.3022761000029,308.68549140001414,None,right,1,0.5692011000064667,308.68549140001414,None,308.1938031000027,308.7017938999925,,,,,,,,,,,,,0,001,2020_Jun_30_1059,ANT,2020.1.3,60.075719432858385,
stim/centre.png,stim/incongLeft.png,left,0,,,,,1,0,1,0,0,45,45,18,,,,,0.55,309.28466020000633,None,309.8341890000156,309.9341284999973,310.31740170001285,None,left,1,0.4960877999837976,310.31740170001285,None,309.8341890000156,310.33410659999936,,,,,,,,,,,,,0,001,2020_Jun_30_1059,ANT,2020.1.3,60.075719432858385,
stim/blank.png,stim/congRight.png,left,180,,,,,1,0,1,0,0,46,46,15,,,,,0.45,310.8333677999908,None,311.2880393000087,311.39978690000135,311.7828026000061,None,left,1,0.46015349999652244,311.7828026000061,None,311.2880393000087,311.79905750000034,,,,,,,,,,,,,0,001,2020_Jun_30_1059,ANT,2020.1.3,60.075719432858385,
stim/blank.png,stim/neutralRight.png,left,180,,,,,1,0,1,0,0,47,47,47,,,,,0.55,312.26571899998817,None,312.81939340001554,312.9317766999884,313.3142843999958,None,left,1,0.6286087000044063,313.3142843999958,None,312.81939340001554,313.33113179999054,,,,,,,,,,,,,0,001,2020_Jun_30_1059,ANT,2020.1.3,60.075719432858385,
stim/both.png,stim/neutralRight.png,right,0,,,,,1,0,1,0,1,0,48,41,,,,,0.5,313.96433550000074,None,314.46354299999075,314.56405330001144,314.94727920001606,None,right,1,0.47275859999354,314.94727920001606,None,314.46354299999075,314.9634348000109,,,,,,,,,,,,,0,001,2020_Jun_30_1059,ANT,2020.1.3,60.075719432858385,
stim/lower.png,stim/neutralRight.png,left,180,,,,,1,0,1,0,1,1,49,44,,,,,0.4,315.44665960001294,None,315.85586909999256,315.96251330000814,316.345653700002,None,left,1,0.4967962999944575,316.345653700002,None,315.85586909999256,316.36207780000404,,,,,,,,,,,,,0,001,2020_Jun_30_1059,ANT,2020.1.3,60.075719432858385,
stim/lower.png,stim/incongRight.png,left,180,,,,,1,0,1,0,1,2,50,28,,,,,0.5,316.8614230999956,None,317.3661749000021,317.47793339999043,317.8610733000096,None,left,1,0.4771333000098821,317.8610733000096,None,317.3661749000021,317.8775342000008,,,,,,,,,,,,,0,001,2020_Jun_30_1059,ANT,2020.1.3,60.075719432858385,
stim/upper.png,stim/congLeft.png,left,0,,,,,1,0,1,0,1,3,51,0,,,,,0.5,318.36155180001515,None,318.88088979999884,318.99326859999564,319.37657399999443,None,left,1,0.45739060000050813,319.37657399999443,None,318.88088979999884,319.39321760000894,,,,,,,,,,,,,0,001,2020_Jun_30_1059,ANT,2020.1.3,60.075719432858385,
stim/both.png,stim/incongRight.png,left,180,,,,,1,0,1,0,1,4,52,29,,,,,0.45,319.85930790001294,None,320.314526400005,320.42533530000946,320.8089972999878,None,left,1,0.4964563999965321,320.8089972999878,None,320.314526400005,320.82544159999816,,,,,,,,,,,,,0,001,2020_Jun_30_1059,ANT,2020.1.3,60.075719432858385,
stim/centre.png,stim/congRight.png,right,0,,,,,1,0,1,0,1,5,53,10,,,,,0.45,321.325825500011,None,321.7967995000072,321.90791740000714,322.2910981999885,None,right,1,0.5356082999787759,322.2910981999885,None,321.7967995000072,322.30739810000523,,,,,,,,,,,,,0,001,2020_Jun_30_1059,ANT,2020.1.3,60.075719432858385,
stim/centre.png,stim/incongLeft.png,right,180,,,,,1,0,1,0,1,6,54,22,,,,,0.45,322.85706060001394,None,323.3112886000017,323.4230722000066,323.8062023000093,None,left,0,0.47904259999631904,323.8062023000093,None,323.3112886000017,323.82272600001306,,,,,,,,,,,,,0,001,2020_Jun_30_1059,ANT,2020.1.3,60.075719432858385,
stim/lower.png,stim/congRight.png,left,180,,,,,1,0,1,0,1,7,55,12,,,,,0.45,324.3056026000122,None,324.75671899999725,324.87195910001174,325.2553009999974,None,left,1,0.48487289997865446,325.2553009999974,None,324.75671899999725,325.271535900014,,,,,,,,,,,,,0,001,2020_Jun_30_1059,ANT,2020.1.3,60.075719432858385,
stim/centre.png,stim/incongRight.png,left,180,,,,,1,0,1,0,1,8,56,30,,,,,0.55,325.75523810001323,None,326.3209409000119,326.42046739999205,326.8038968000037,None,right,0,0.5131528000056278,326.8038968000037,None,326.3209409000119,326.8202700999973,,,,,,,,,,,,,0,001,2020_Jun_30_1059,ANT,2020.1.3,60.075719432858385,
stim/upper.png,stim/incongRight.png,right,0,,,,,1,0,1,0,1,9,57,24,,,,,0.5,327.33807500000694,None,327.858361599996,327.96927900001174,328.3523803999997,None,right,1,0.56797830000869,328.3523803999997,None,327.858361599996,328.3688487999898,,,,,,,,,,,,,0,001,2020_Jun_30_1059,ANT,2020.1.3,60.075719432858385,
stim/both.png,stim/incongLeft.png,right,180,,,,,1,0,1,0,1,10,58,21,,,,,0.5,328.9351591000159,None,329.43723539999337,329.55146230000537,329.9349008999998,None,left,0,0.48176550000789575,329.9349008999998,None,329.43723539999337,329.9512961000146,,,,,,,,,,,,,0,001,2020_Jun_30_1059,ANT,2020.1.3,60.075719432858385,
stim/lower.png,stim/incongLeft.png,right,180,,,,,1,0,1,0,1,11,59,20,,,,,0.45,330.4351721999992,None,330.9087303999986,331.0166171999881,331.40038510001614,None,right,1,1.4710902000078931,331.40038510001614,None,330.9087303999986,331.4166103999887,,,,,,,,,,,,,0,001,2020_Jun_30_1059,ANT,2020.1.3,60.075719432858385,
stim/both.png,stim/incongLeft.png,left,0,,,,,1,0,1,0,1,12,60,17,,,,,0.45,332.8992841000145,None,333.36558820001665,333.46504850001656,333.84827519999817,None,left,1,0.483248900010949,333.84827519999817,None,333.36558820001665,333.86478430000716,,,,,,,,,,,,,0,001,2020_Jun_30_1059,ANT,2020.1.3,60.075719432858385,
stim/both.png,stim/incongRight.png,right,0,,,,,1,0,1,0,1,13,61,25,,,,,0.4,334.34775939999963,None,334.7526722000039,334.86340999999084,335.24720459998935,None,right,1,0.4867278999881819,335.24720459998935,None,334.7526722000039,335.26365800001076,,,,,,,,,,,,,0,001,2020_Jun_30_1059,ANT,2020.1.3,60.075719432858385,
stim/both.png,stim/congRight.png,right,0,,,,,1,0,1,0,1,14,62,9,,,,,0.55,335.7631117000128,None,336.31802110001445,336.4290167000145,336.8118257999886,None,right,1,0.5314084999845363,336.8118257999886,None,336.31802110001445,336.82822160000796,,,,,,,,,,,,,0,001,2020_Jun_30_1059,ANT,2020.1.3,60.075719432858385,
stim/blank.png,stim/incongRight.png,right,0,,,,,1,0,1,0,1,15,63,27,,,,,0.45,337.36270649998914,None,337.8324391999922,337.9444083000126,338.32769669999834,None,right,1,0.5855232999892905,338.32769669999834,None,337.8324391999922,338.3445442999946,,,,,,,,,,,,,0,001,2020_Jun_30_1059,ANT,2020.1.3,60.075719432858385,
stim/upper.png,stim/neutralRight.png,right,0,,,,,1,0,1,0,1,16,64,40,,,,,0.4,338.9435824000102,None,339.3480879999988,339.46019400001387,339.84345439999015,None,right,1,0.40130040000076406,339.84345439999015,None,339.3480879999988,339.85968429999775,,,,,,,,,,,,,0,001,2020_Jun_30_1059,ANT,2020.1.3,60.075719432858385,
stim/both.png,stim/congLeft.png,left,0,,,,,1,0,1,0,1,17,65,1,,,,,0.5,340.2757896000112,None,340.7796173999959,340.89221140000154,341.2754833000072,None,left,1,0.4219364000018686,341.2754833000072,None,340.7796173999959,341.29210389999207,,,,,,,,,,,,,0,001,2020_Jun_30_1059,ANT,2020.1.3,60.075719432858385,
stim/blank.png,stim/neutralLeft.png,left,0,,,,,1,0,1,0,1,18,66,35,,,,,0.5,341.7250558999949,None,342.2273305999988,342.3408579000097,342.7235270999954,None,left,1,0.43128319998504594,342.7235270999954,None,342.2273305999988,342.7401977000118,,,,,,,,,,,,,0,001,2020_Jun_30_1059,ANT,2020.1.3,60.075719432858385,
stim/both.png,stim/congLeft.png,right,180,,,,,1,0,1,0,1,19,67,5,,,,,0.55,343.1745023000112,None,343.7451915999991,343.8558835000149,344.2397187000024,None,right,1,0.5506584999966435,344.2397187000024,None,343.7451915999991,344.25620699999854,,,,,,,,,,,,,0,001,2020_Jun_30_1059,ANT,2020.1.3,60.075719432858385,
stim/lower.png,stim/congLeft.png,right,180,,,,,1,0,1,0,1,20,68,4,,,,,0.55,344.8055336000107,None,345.3599344000104,345.47186389999115,345.8551293000055,None,right,1,0.46252559998538345,345.8551293000055,None,345.3599344000104,345.8715472999902,,,,,,,,,,,,,0,001,2020_Jun_30_1059,ANT,2020.1.3,60.075719432858385,
stim/centre.png,stim/neutralRight.png,left,180,,,,,1,0,1,0,1,21,69,46,,,,,0.4,346.33751380001195,None,346.7401863000123,346.85361150000244,347.23735020001186,None,left,1,0.5102203999995254,347.23735020001186,None,346.7401863000123,347.25348000001395,,,,,,,,,,,,,0,001,2020_Jun_30_1059,ANT,2020.1.3,60.075719432858385,
stim/centre.png,stim/incongLeft.png,left,0,,,,,1,0,1,0,1,22,70,18,,,,,0.4,347.77036860000226,None,348.17461799999,348.2859885999933,348.66880020001554,None,left,1,0.4604904000007082,348.66880020001554,None,348.17461799999,348.68538840001565,,,,,,,,,,,,,0,001,2020_Jun_30_1059,ANT,2020.1.3,60.075719432858385,
stim/blank.png,stim/neutralRight.png,left,180,,,,,1,0,1,0,1,23,71,47,,,,,0.45,349.15211830000044,None,349.6063812999928,349.7180219000147,350.1015817000007,None,left,1,0.5766092000121716,350.1015817000007,None,349.6063812999928,350.1178332999989,,,,,,,,,,,,,0,001,2020_Jun_30_1059,ANT,2020.1.3,60.075719432858385,
stim/centre.png,stim/neutralRight.png,right,0,,,,,1,0,1,0,1,24,72,42,,,,,0.45,350.70118860001094,None,351.1534433999914,351.2671432000061,351.650375600002,None,right,1,0.4521853999758605,351.650375600002,None,351.1534433999914,351.66655130000436,,,,,,,,,,,,,0,001,2020_Jun_30_1059,ANT,2020.1.3,60.075719432858385,
stim/both.png,stim/congRight.png,left,180,,,,,1,0,1,0,1,25,73,13,,,,,0.45,352.13232800000696,None,352.58757229999173,352.6990500999964,353.0819053000014,None,left,1,0.5177145999914501,353.0819053000014,None,352.58757229999173,353.0983281999943,,,,,,,,,,,,,0,001,2020_Jun_30_1059,ANT,2020.1.3,60.075719432858385,
stim/upper.png,stim/incongLeft.png,left,0,,,,,1,0,1,0,1,26,74,16,,,,,0.45,353.6151691999985,None,354.07440489999135,354.18108840001514,354.5645133999933,None,left,1,0.460037699987879,354.5645133999933,None,354.07440489999135,354.58081330001005,,,,,,,,,,,,,0,001,2020_Jun_30_1059,ANT,2020.1.3,60.075719432858385,
stim/blank.png,stim/congLeft.png,left,0,,,,,1,0,1,0,1,27,75,3,,,,,0.5,355.04717969999183,None,355.55436010000994,355.66271850001067,356.04668289999245,None,left,1,0.4681139999884181,356.04668289999245,None,355.55436010000994,356.06315209998866,,,,,,,,,,,,,0,001,2020_Jun_30_1059,ANT,2020.1.3,60.075719432858385,
stim/centre.png,stim/neutralLeft.png,right,180,,,,,1,0,1,0,1,28,76,38,,,,,0.55,356.5459922000009,None,357.0983377000084,357.212222400005,357.59543680000934,None,right,1,0.5483666000072844,357.59543680000934,None,357.0983377000084,357.61189379999996,,,,,,,,,,,,,0,001,2020_Jun_30_1059,ANT,2020.1.3,60.075719432858385,
stim/blank.png,stim/incongLeft.png,left,0,,,,,1,0,1,0,1,29,77,19,,,,,0.55,358.16254359998857,None,358.7317141999956,358.84426579999854,359.2265948000131,None,left,1,0.5196390000055544,359.2265948000131,None,358.7317141999956,359.2432058000122,,,,,,,,,,,,,0,001,2020_Jun_30_1059,ANT,2020.1.3,60.075719432858385,
stim/blank.png,stim/incongRight.png,left,180,,,,,1,0,1,0,1,30,78,31,,,,,0.5,359.7764579000068,None,360.2839488000027,360.3922181999951,360.75949570001103,None,left,1,0.6386182999995071,360.75949570001103,None,360.2839488000027,360.79249389999313,,,,,,,,,,,,,0,001,2020_Jun_30_1059,ANT,2020.1.3,60.075719432858385,
stim/blank.png,stim/incongLeft.png,right,180,,,,,1,0,1,0,1,31,79,23,,,,,0.55,361.42526160000125,None,361.9795479000022,362.0916137000022,362.4742632000125,None,right,1,0.5686929000075907,362.4742632000125,None,361.9795479000022,362.4909212999919,,,,,,,,,,,,,0,001,2020_Jun_30_1059,ANT,2020.1.3,60.075719432858385,
stim/blank.png,stim/congRight.png,right,0,,,,,1,0,1,0,1,32,80,11,,,,,0.5,363.0738870000059,None,363.5784083000035,363.69021860000794,364.0731020999956,None,right,1,0.509177500003716,364.0731020999956,None,363.5784083000035,364.08982709998963,,,,,,,,,,,,,0,001,2020_Jun_30_1059,ANT,2020.1.3,60.075719432858385,
stim/both.png,stim/neutralLeft.png,left,0,,,,,1,0,1,0,1,33,81,33,,,,,0.45,364.6076589000004,None,365.0787760000094,365.18815729999915,365.5719709999976,None,left,1,0.42134689999511465,365.5719709999976,None,365.0787760000094,365.58857510000234,,,,,,,,,,,,,0,001,2020_Jun_30_1059,ANT,2020.1.3,60.075719432858385,
stim/blank.png,stim/congRight.png,left,180,,,,,1,0,1,0,1,34,82,15,,,,,0.5,366.02164290001383,None,366.5258820000163,366.6376295000082,367.02094509999733,None,left,1,0.5318056000105571,367.02094509999733,None,366.5258820000163,367.0374737000093,,,,,,,,,,,,,0,001,2020_Jun_30_1059,ANT,2020.1.3,60.075719432858385,
stim/blank.png,stim/neutralLeft.png,right,180,,,,,1,0,1,0,1,35,83,39,,,,,0.45,367.56981590000214,None,368.0257854000083,368.1366345999995,368.5199580999906,None,right,1,0.4558398999797646,368.5199580999906,None,368.0257854000083,368.53597520000767,,,,,,,,,,,,,0,001,2020_Jun_30_1059,ANT,2020.1.3,60.075719432858385,
stim/centre.png,stim/congRight.png,left,180,,,,,1,0,1,0,1,36,84,14,,,,,0.5,369.00249660000554,None,369.50485230001505,369.61847380001564,370.0018629000115,None,left,1,0.4637415999895893,370.0018629000115,None,369.50485230001505,370.018344799988,,,,,,,,,,,,,0,001,2020_Jun_30_1059,ANT,2020.1.3,60.075719432858385,
stim/blank.png,stim/congLeft.png,right,180,,,,,1,0,1,0,1,37,85,7,,,,,0.45,370.4850665999984,None,370.94056580000324,371.05035810000845,371.43381899999804,None,left,0,0.4060324000020046,371.43381899999804,None,370.94056580000324,371.45057250000536,,,,,,,,,,,,,0,001,2020_Jun_30_1059,ANT,2020.1.3,60.075719432858385,
stim/blank.png,stim/neutralRight.png,right,0,,,,,1,0,1,0,1,38,86,43,,,,,0.4,371.86759410001105,None,372.28333130001556,372.38304600000265,372.78279729999485,None,right,1,0.47569630001089536,372.78279729999485,None,372.28333130001556,372.78279729999485,,,,,,,,,,,,,0,001,2020_Jun_30_1059,ANT,2020.1.3,60.075719432858385,
stim/upper.png,stim/neutralLeft.png,left,0,,,,,1,0,1,0,1,39,87,32,,,,,0.4,373.28291609999724,None,373.6867484000104,373.7982856000017,374.1819250000117,None,left,1,0.42020240001147613,374.1819250000117,None,373.6867484000104,374.1981975999952,,,,,,,,,,,,,0,001,2020_Jun_30_1059,ANT,2020.1.3,60.075719432858385,
stim/upper.png,stim/congRight.png,right,0,,,,,1,0,1,0,1,40,88,8,,,,,0.45,374.6309964999964,None,375.08551619999344,375.1974850000115,375.58036180000636,None,left,0,0.305042299994966,375.58036180000636,None,375.08551619999344,375.59667870000703,,,,,,,,,,,,,0,001,2020_Jun_30_1059,ANT,2020.1.3,60.075719432858385,
stim/centre.png,stim/neutralLeft.png,left,0,,,,,1,0,1,0,1,41,89,34,,,,,0.4,375.9134880999918,None,376.3169618000102,376.4297602000006,376.8124977000116,None,right,0,0.20601379999425262,376.8124977000116,None,376.3169618000102,376.8289759999898,,,,,,,,,,,,,0,001,2020_Jun_30_1059,ANT,2020.1.3,60.075719432858385,
stim/centre.png,stim/incongRight.png,right,0,,,,,1,0,1,0,1,42,90,26,,,,,0.45,377.0456120999879,None,377.4993623000046,377.6119766999909,377.99495809999644,None,left,0,0.36511380001320504,377.99495809999644,None,377.4993623000046,378.01165500000934,,,,,,,,,,,,,0,001,2020_Jun_30_1059,ANT,2020.1.3,60.075719432858385,
stim/both.png,stim/neutralLeft.png,right,180,,,,,1,0,1,0,1,43,91,37,,,,,0.4,378.37819489999674,None,378.7817955999926,378.8944047999976,379.276944799989,None,right,1,0.5118513999914285,379.276944799989,None,378.7817955999926,379.2934366000118,,,,,,,,,,,,,0,001,2020_Jun_30_1059,ANT,2020.1.3,60.075719432858385,
stim/both.png,stim/neutralRight.png,left,180,,,,,1,0,1,0,1,44,92,45,,,,,0.55,379.80987019999884,None,380.36350420000963,380.47615309999674,380.859438399988,None,left,1,0.47199150000233203,380.859438399988,None,380.36350420000963,380.8761276000005,,,,,,,,,,,,,0,001,2020_Jun_30_1059,ANT,2020.1.3,60.075719432858385,
stim/centre.png,stim/congLeft.png,right,180,,,,,1,0,1,0,1,45,93,6,,,,,0.5,381.3589949999878,None,381.86276960000396,381.975228299998,382.35818380001,None,right,1,0.42926540001644753,382.35818380001,None,381.86276960000396,382.37446170000476,,,,,,,,,,,,,0,001,2020_Jun_30_1059,ANT,2020.1.3,60.075719432858385,
stim/centre.png,stim/congLeft.png,left,0,,,,,1,0,1,0,1,46,94,2,,,,,0.5,382.80727019999176,None,383.3109939999995,383.42414290001034,383.8072322999942,None,left,1,0.40558900000178255,383.8072322999942,None,383.3109939999995,383.82348749999073,,,,,,,,,,,,,0,001,2020_Jun_30_1059,ANT,2020.1.3,60.075719432858385,
stim/lower.png,stim/neutralLeft.png,right,180,,,,,1,0,1,0,1,47,95,36,,,,,0.45,384.24103790000663,None,384.7110806000128,384.82301970000844,385.20573079999303,None,right,1,0.4272279000142589,385.20573079999303,None,384.7110806000128,385.22258910001256,,,,,,,,,,,,,0,001,2020_Jun_30_1059,ANT,2020.1.3,60.075719432858385,
,,,,,,,,1,0,1,0,,,,,,,,,,,,,,,,,,,,,,,,,,,,,,,385.65556499999366,None,,,0,001,2020_Jun_30_1059,ANT,2020.1.3,60.075719432858385,
,,,,,,,,,,,,,,,,,,,,,,,,,,,,,,,,,,,,,,,,,,,,392.51655339999706,None,,,,,,,
