cue,tar,corrAns,targOrientation,pracLoop.thisRepN,pracLoop.thisTrialN,pracLoop.thisN,pracLoop.thisIndex,blockLoop.thisRepN,blockLoop.thisTrialN,blockLoop.thisN,blockLoop.thisIndex,mainLoop.thisRepN,mainLoop.thisTrialN,mainLoop.thisN,mainLoop.thisIndex,pracText1.started,pracText1.stopped,practInst2.started,practInst2.stopped,fixFuration,image.started,image.stopped,cues.started,cues.stopped,target.started,target.stopped,resp.keys,resp.corr,resp.rt,resp.started,resp.stopped,fixationshort.started,fixationshort.stopped,text.started,text.stopped,mainInst.started,mainInst.stopped,instResp.keys,instResp.rt,instResp.started,instResp.stopped,rest.started,rest.stopped,participant,session,date,expName,psychopyVersion,frameRate,
stim/blank.png,stim/incongLeft.png,left,0,0,0,0,19,,,,,,,,,26.313205000013113,None,29.00653549999697,None,0.5,31.71160370000871,None,32.2442629999714,32.35255369998049,32.735874800011516,None,left,1,0.6380987000302412,32.735874800011516,None,32.2442629999714,32.75228720001178,33.453983500017785,None,,,,,,,,,mdm0923,001,2020_Jul_09_1554,ANT,2020.1.3,60.14614310501687,
stim/both.png,stim/congRight.png,right,0,0,1,1,9,,,,,,,,,,,,,0.4,34.46779999998398,None,34.88901689997874,35.00052040000446,35.38371299998835,None,right,1,0.5372250999789685,35.38371299998835,None,34.88901689997874,35.400098800018895,35.969936300010886,None,,,,,,,,,mdm0923,001,2020_Jul_09_1554,ANT,2020.1.3,60.14614310501687,
stim/lower.png,stim/congLeft.png,right,180,0,2,2,4,,,,,,,,,,,,,0.4,36.982351000013296,None,37.405175400024746,37.515075300005265,37.89834289997816,None,right,1,0.5825437000021338,37.89834289997816,None,37.405175400024746,37.91513360000681,38.5214954999974,None,,,,,,,,,mdm0923,001,2020_Jul_09_1554,ANT,2020.1.3,60.14614310501687,
stim/centre.png,stim/congLeft.png,right,180,0,3,3,6,,,,,,,,,,,,,0.5,39.53044920001412,None,40.05240169999888,40.16288359998725,40.54646609997144,None,right,1,0.5028970999992453,40.54646609997144,None,40.05240169999888,40.56266910000704,41.09549209999386,None,,,,,,,,,mdm0923,001,2020_Jul_09_1554,ANT,2020.1.3,60.14614310501687,
stim/centre.png,stim/congLeft.png,left,0,0,4,4,2,,,,,,,,,,,,,0.45,42.09491909999633,None,42.54650409996975,42.661125499987975,43.04412540001795,None,left,1,0.4439165000221692,43.04412540001795,None,42.54650409996975,43.06091830000514,43.532840900006704,None,,,,,,,,,mdm0923,001,2020_Jul_09_1554,ANT,2020.1.3,60.14614310501687,
stim/centre.png,stim/incongLeft.png,right,180,0,5,5,22,,,,,,,,,,,,,0.4,44.54271900001913,None,44.94221629999811,45.042250900005456,45.425741099985316,None,right,1,0.6031600999995135,45.425741099985316,None,44.94221629999811,45.44198290002532,46.06107419996988,None,,,,,,,,,mdm0923,001,2020_Jul_09_1554,ANT,2020.1.3,60.14614310501687,
stim/blank.png,stim/congRight.png,right,0,0,6,6,11,,,,,,,,,,,,,0.4,47.07408769999165,None,47.47806669998681,47.59047340002144,47.973478199972305,None,right,1,0.5768315000459552,47.973478199972305,None,47.47806669998681,47.990197899984196,48.575036700000055,None,,,,,,,,,mdm0923,001,2020_Jul_09_1554,ANT,2020.1.3,60.14614310501687,
stim/blank.png,stim/incongLeft.png,right,180,0,7,7,23,,,,,,,,,,,,,0.4,49.588651500002015,None,49.990547300025355,50.10499899997376,50.48804259998724,None,right,1,0.8710870999493636,50.48804259998724,None,49.990547300025355,50.50449680001475,51.40875030000461,None,,,,,,,,,mdm0923,001,2020_Jul_09_1554,ANT,2020.1.3,60.14614310501687,
stim/centre.png,stim/congRight.png,left,180,0,8,8,14,,,,,,,,,,,,,0.45,52.41987270000391,None,52.87398839998059,52.985920700011775,53.36868830001913,None,left,1,0.4955925999674946,53.36868830001913,None,52.87398839998059,53.38543640001444,53.90160029998515,None,,,,,,,,,mdm0923,001,2020_Jul_09_1554,ANT,2020.1.3,60.14614310501687,
stim/blank.png,stim/congLeft.png,right,180,0,9,9,7,,,,,,,,,,,,,0.55,54.901119599991944,None,55.45455969998147,55.567053199978545,55.95053899998311,None,right,1,0.54268959996989,55.95053899998311,None,55.45455969998147,55.967032800021116,56.53256830002647,None,,,,,,,,,mdm0923,001,2020_Jul_09_1554,ANT,2020.1.3,60.14614310501687,
stim/both.png,stim/congLeft.png,right,180,0,10,10,5,,,,,,,,,,,,,0.45,57.53192560002208,None,57.986251599970274,58.09781180002028,58.481818499974906,None,right,1,0.512339900014922,58.481818499974906,None,57.986251599970274,58.49818360002246,59.039592700020876,None,,,,,,,,,mdm0923,001,2020_Jul_09_1554,ANT,2020.1.3,60.14614310501687,
stim/centre.png,stim/incongLeft.png,left,0,0,11,11,18,,,,,,,,,,,,,0.45,60.04684999998426,None,60.51278819999425,60.61285330000101,60.995998799975496,None,left,1,0.6041466000024229,60.995998799975496,None,60.51278819999425,61.01260750001529,61.64602370001376,None,,,,,,,,,mdm0923,001,2020_Jul_09_1554,ANT,2020.1.3,60.14614310501687,
stim/blank.png,stim/congRight.png,left,180,0,12,12,15,,,,,,,,,,,,,0.4,62.66170910000801,None,63.06064270000206,63.16109870001674,63.54400310001802,None,left,1,0.6188737999764271,63.54400310001802,None,63.06064270000206,63.560421200003475,64.21363670000574,None,,,,,,,,,mdm0923,001,2020_Jul_09_1554,ANT,2020.1.3,60.14614310501687,
stim/lower.png,stim/congRight.png,left,180,0,13,13,12,,,,,,,,,,,,,0.55,65.2259782999754,None,65.78490219998639,65.89200180000626,66.27503339998657,None,left,1,0.46671529999002814,66.27503339998657,None,65.78490219998639,66.29170300002443,66.76925489999121,None,,,,,,,,,mdm0923,001,2020_Jul_09_1554,ANT,2020.1.3,60.14614310501687,
stim/upper.png,stim/congRight.png,right,0,0,14,14,8,,,,,,,,,,,,,0.45,67.77338929998223,None,68.24936419998994,68.35673090000637,68.73995929997182,None,right,1,0.5622580000199378,68.73995929997182,None,68.24936419998994,68.75624760001665,69.33825390000129,None,,,,,,,,,mdm0923,001,2020_Jul_09_1554,ANT,2020.1.3,60.14614310501687,
stim/centre.png,stim/congRight.png,right,0,0,15,15,10,,,,,,,,,,,,,0.5,70.33774440002162,None,70.84216060000472,70.95458309998503,71.3376125000068,None,right,1,0.7466146000078879,71.3376125000068,None,70.84216060000472,71.35398999997415,72.1201719000237,None,,,,,,,,,mdm0923,001,2020_Jul_09_1554,ANT,2020.1.3,60.14614310501687,
stim/lower.png,stim/incongLeft.png,right,180,0,16,16,20,,,,,,,,,,,,,0.5,73.11936529999366,None,73.62403730000369,73.7355755000026,74.11849500000244,None,left,0,0.45407469995552674,74.11849500000244,None,73.62403730000369,74.13488590001361,74.61180569999851,None,,,,,,,,,mdm0923,001,2020_Jul_09_1554,ANT,2020.1.3,60.14614310501687,
stim/blank.png,stim/congLeft.png,left,0,0,17,17,3,,,,,,,,,,,,,0.55,75.61732080002548,None,76.17328829999315,76.28290509997169,76.65012950001983,None,right,0,0.7600712000275962,76.65012950001983,None,76.17328829999315,76.68302050000057,77.4318846000242,None,,,,,,,,,mdm0923,001,2020_Jul_09_1554,ANT,2020.1.3,60.14614310501687,
stim/both.png,stim/incongLeft.png,right,180,0,18,18,21,,,,,,,,,,,,,0.55,78.43195950001245,None,78.98371180001413,79.09763129998464,79.48099219996948,None,right,1,0.8146069000358693,79.48099219996948,None,78.98371180001413,79.49736739997752,80.32641079998575,None,,,,,,,,,mdm0923,001,2020_Jul_09_1554,ANT,2020.1.3,60.14614310501687,
stim/both.png,stim/incongLeft.png,left,0,0,19,19,17,,,,,,,,,,,,,0.55,81.32946199999424,None,81.88148009998258,81.99521750002168,82.37842740002088,None,left,1,0.6011077999719419,82.37842740002088,None,81.88148009998258,82.39496040000813,83.00926149997395,None,,,,,,,,,mdm0923,001,2020_Jul_09_1554,ANT,2020.1.3,60.14614310501687,
stim/both.png,stim/congLeft.png,left,0,0,20,20,1,,,,,,,,,,,,,0.4,84.01030520000495,None,84.41537210001843,84.52646449999884,84.90952440002002,None,left,1,0.50695499998983,84.90952440002002,None,84.41537210001843,84.92602090002038,85.457515600021,None,,,,,,,,,mdm0923,001,2020_Jul_09_1554,ANT,2020.1.3,60.14614310501687,
stim/upper.png,stim/congLeft.png,left,0,0,21,21,0,,,,,,,,,,,,,0.55,86.45823029999156,None,87.00988349999534,87.12443490000442,87.50762230000691,None,left,1,0.5269456999958493,87.50762230000691,None,87.00988349999534,87.52415439998731,88.08284190000268,None,,,,,,,,,mdm0923,001,2020_Jul_09_1554,ANT,2020.1.3,60.14614310501687,
stim/both.png,stim/congRight.png,left,180,0,22,22,13,,,,,,,,,,,,,0.5,89.08953980001388,None,89.59302700002445,89.70511530002113,90.08892379997997,None,left,1,0.5605988000170328,90.08892379997997,None,89.59302700002445,90.10517090000212,90.6872498000157,None,,,,,,,,,mdm0923,001,2020_Jul_09_1554,ANT,2020.1.3,60.14614310501687,
stim/upper.png,stim/incongLeft.png,left,0,0,23,23,16,,,,,,,,,,,,,0.5,91.6875538000022,None,92.20343569997931,92.30353400000604,92.68665069999406,None,left,1,0.5930813000304624,92.68665069999406,None,92.20343569997931,92.70311509998282,93.3094447000185,None,,,,,,,,,mdm0923,001,2020_Jul_09_1554,ANT,2020.1.3,60.14614310501687,
,,,,,,,,,,,,,,,,,,,,,,,,,,,,,,,,,,,,94.31900279998081,None,space,7.175410299969371,94.31900279998081,None,,,mdm0923,001,2020_Jul_09_1554,ANT,2020.1.3,60.14614310501687,
stim/blank.png,stim/incongRight.png,left,180,,,,,0,0,0,0,0,0,0,31,,,,,0.55,101.5504813999869,None,102.12832870002603,102.22896659997059,102.62843550002435,None,left,1,0.7017898000194691,102.62843550002435,None,102.12832870002603,102.62843550002435,,,,,,,,,,,mdm0923,001,2020_Jul_09_1554,ANT,2020.1.3,60.14614310501687,
stim/upper.png,stim/congRight.png,right,0,,,,,0,0,0,0,0,1,1,8,,,,,0.4,103.36124519997975,None,103.7641010999796,103.87755289999768,104.26053019997198,None,right,1,0.4798473000410013,104.26053019997198,None,103.7641010999796,104.27705689996947,,,,,,,,,,,mdm0923,001,2020_Jul_09_1554,ANT,2020.1.3,60.14614310501687,
stim/centre.png,stim/congRight.png,left,180,,,,,0,0,0,0,0,2,2,14,,,,,0.5,104.760232599976,None,105.275936799997,105.37592449999647,105.75954379996983,None,left,1,0.45557029999326915,105.75954379996983,None,105.275936799997,105.77579579997109,,,,,,,,,,,mdm0923,001,2020_Jul_09_1554,ANT,2020.1.3,60.14614310501687,
stim/blank.png,stim/incongLeft.png,right,180,,,,,0,0,0,0,0,3,3,23,,,,,0.45,106.24195719999261,None,106.69641630002297,106.8082560999901,107.19180480000796,None,right,1,0.616498000046704,107.19180480000796,None,106.69641630002297,107.208123599994,,,,,,,,,,,mdm0923,001,2020_Jul_09_1554,ANT,2020.1.3,60.14614310501687,
stim/blank.png,stim/neutralLeft.png,left,0,,,,,0,0,0,0,0,4,4,35,,,,,0.55,107.82388380001066,None,108.38757780002197,108.49022470001364,108.87295029999223,None,left,1,0.48119210003642365,108.87295029999223,None,108.38757780002197,108.88939670001855,,,,,,,,,,,mdm0923,001,2020_Jul_09_1554,ANT,2020.1.3,60.14614310501687,
stim/lower.png,stim/neutralLeft.png,right,180,,,,,0,0,0,0,0,5,5,36,,,,,0.4,109.37276840000413,None,109.78052650002064,109.88935539999511,110.27217810001457,None,right,1,0.487143499951344,110.27217810001457,None,109.78052650002064,110.28891419997672,,,,,,,,,,,mdm0923,001,2020_Jul_09_1554,ANT,2020.1.3,60.14614310501687,
stim/both.png,stim/congLeft.png,right,180,,,,,0,0,0,0,0,6,6,5,,,,,0.5,110.79014130000724,None,111.30431049998151,111.40443489997415,111.80426020000596,None,right,1,0.5147425000322983,111.80426020000596,None,111.30431049998151,111.80426020000596,,,,,,,,,,,mdm0923,001,2020_Jul_09_1554,ANT,2020.1.3,60.14614310501687,
stim/centre.png,stim/congRight.png,right,0,,,,,0,0,0,0,0,7,7,10,,,,,0.5,112.33759469998768,None,112.84111209999537,112.95315020001726,113.33640550001292,None,right,1,0.5062919000047259,113.33640550001292,None,112.84111209999537,113.35279229999287,,,,,,,,,,,mdm0923,001,2020_Jul_09_1554,ANT,2020.1.3,60.14614310501687,
stim/upper.png,stim/congLeft.png,left,0,,,,,0,0,0,0,0,8,8,0,,,,,0.4,113.86972979997518,None,114.27384300000267,114.38542970002163,114.76841060002334,None,left,1,0.5219031000160612,114.76841060002334,None,114.27384300000267,114.78486239997437,,,,,,,,,,,mdm0923,001,2020_Jul_09_1554,ANT,2020.1.3,60.14614310501687,
stim/lower.png,stim/incongLeft.png,right,180,,,,,0,0,0,0,0,9,9,20,,,,,0.4,115.31787939998321,None,115.72233680001227,115.83413460000884,116.21758860000409,None,right,1,0.5939537999802269,116.21758860000409,None,115.72233680001227,116.23386320000282,,,,,,,,,,,mdm0923,001,2020_Jul_09_1554,ANT,2020.1.3,60.14614310501687,
stim/upper.png,stim/incongLeft.png,left,0,,,,,0,0,0,0,0,10,10,16,,,,,0.4,116.834692000004,None,117.24943989998428,117.3493045999785,117.73276589997113,None,left,1,0.5426296999794431,117.73276589997113,None,117.24943989998428,117.74912689998746,,,,,,,,,,,mdm0923,001,2020_Jul_09_1554,ANT,2020.1.3,60.14614310501687,
stim/centre.png,stim/incongLeft.png,left,0,,,,,0,0,0,0,0,11,11,18,,,,,0.4,118.29891180002596,None,118.7030848999857,118.81495640001958,119.198076199973,None,left,1,0.4589764999691397,119.198076199973,None,118.7030848999857,119.21466800000053,,,,,,,,,,,mdm0923,001,2020_Jul_09_1554,ANT,2020.1.3,60.14614310501687,
stim/centre.png,stim/incongRight.png,left,180,,,,,0,0,0,0,0,12,12,30,,,,,0.5,119.6815810999833,None,120.18565940001281,120.29739030002384,120.68052459997125,None,left,1,0.5032148999744095,120.68052459997125,None,120.18565940001281,120.69675920001464,,,,,,,,,,,mdm0923,001,2020_Jul_09_1554,ANT,2020.1.3,60.14614310501687,
stim/blank.png,stim/neutralLeft.png,right,180,,,,,0,0,0,0,0,13,13,39,,,,,0.45,121.21299159998307,None,121.66733359999489,121.77949719998287,122.16235070000403,None,right,1,0.47210130002349615,122.16235070000403,None,121.66733359999489,122.17883950000396,,,,,,,,,,,mdm0923,001,2020_Jul_09_1554,ANT,2020.1.3,60.14614310501687,
stim/both.png,stim/neutralRight.png,left,180,,,,,0,0,0,0,0,14,14,45,,,,,0.5,122.66174419998424,None,123.17450409999583,123.27780290000373,123.66166039998643,None,left,1,0.44010140001773834,123.66166039998643,None,123.17450409999583,123.67770940001355,,,,,,,,,,,mdm0923,001,2020_Jul_09_1554,ANT,2020.1.3,60.14614310501687,
stim/centre.png,stim/neutralLeft.png,right,180,,,,,0,0,0,0,0,15,15,38,,,,,0.55,124.1345676999772,None,124.69823490001727,124.81027110002469,125.19328160001896,None,right,1,0.4085260999854654,125.19328160001896,None,124.69823490001727,125.21007819997612,,,,,,,,,,,mdm0923,001,2020_Jul_09_1554,ANT,2020.1.3,60.14614310501687,
stim/blank.png,stim/incongRight.png,right,0,,,,,0,0,0,0,0,16,16,27,,,,,0.55,125.62809249997372,None,126.19764450000366,126.30913040001178,126.69206249999115,None,right,1,0.9191429000347853,126.69206249999115,None,126.19764450000366,126.7086888999911,,,,,,,,,,,mdm0923,001,2020_Jul_09_1554,ANT,2020.1.3,60.14614310501687,
stim/lower.png,stim/neutralRight.png,left,180,,,,,0,0,0,0,0,17,17,44,,,,,0.4,127.64118350000354,None,128.0405929000117,128.1410800999729,128.5238072000211,None,left,1,0.4381856999825686,128.5238072000211,None,128.0405929000117,128.54044499999145,,,,,,,,,,,mdm0923,001,2020_Jul_09_1554,ANT,2020.1.3,60.14614310501687,
stim/both.png,stim/congRight.png,left,180,,,,,0,0,0,0,0,18,18,13,,,,,0.4,128.98996229999466,None,129.38948329997947,129.4896504000062,129.8728094000253,None,left,1,0.40680200001224875,129.8728094000253,None,129.38948329997947,129.88955349999014,,,,,,,,,,,mdm0923,001,2020_Jul_09_1554,ANT,2020.1.3,60.14614310501687,
stim/blank.png,stim/congLeft.png,left,0,,,,,0,0,0,0,0,19,19,3,,,,,0.45,130.30557899997802,None,130.75938409997616,130.87189339997713,131.25527279998641,None,right,0,0.43057189998216927,131.25527279998641,None,130.75938409997616,131.27184180001495,,,,,,,,,,,mdm0923,001,2020_Jul_09_1554,ANT,2020.1.3,60.14614310501687,
stim/centre.png,stim/neutralLeft.png,left,0,,,,,0,0,0,0,0,20,20,34,,,,,0.45,131.70397410000442,None,132.1592353999731,132.2708559000166,132.6538894000114,None,left,1,0.45418850000714883,132.6538894000114,None,132.1592353999731,132.67037690000143,,,,,,,,,,,mdm0923,001,2020_Jul_09_1554,ANT,2020.1.3,60.14614310501687,
stim/both.png,stim/neutralLeft.png,right,180,,,,,0,0,0,0,0,21,21,37,,,,,0.4,133.13661779998802,None,133.5413172999979,133.65287450002506,134.03595370001858,None,right,1,1.1174355000257492,134.03595370001858,None,133.5413172999979,134.05209379998269,,,,,,,,,,,mdm0923,001,2020_Jul_09_1554,ANT,2020.1.3,60.14614310501687,
stim/blank.png,stim/congLeft.png,right,180,,,,,0,0,0,0,0,22,22,7,,,,,0.55,135.17601039999863,None,135.73919019999448,135.85152590001235,136.2346066000173,None,right,1,0.5106355000170879,136.2346066000173,None,135.73919019999448,136.25078820000635,,,,,,,,,,,mdm0923,001,2020_Jul_09_1554,ANT,2020.1.3,60.14614310501687,
stim/centre.png,stim/incongLeft.png,right,180,,,,,0,0,0,0,0,23,23,22,,,,,0.55,136.76785100001143,None,137.33726960001513,137.44994489999954,137.83285130001605,None,right,1,0.5301609999733046,137.83285130001605,None,137.33726960001513,137.84919159999117,,,,,,,,,,,mdm0923,001,2020_Jul_09_1554,ANT,2020.1.3,60.14614310501687,
stim/blank.png,stim/congRight.png,right,0,,,,,0,0,0,0,0,24,24,11,,,,,0.45,138.38230110000586,None,138.83873570000287,138.94826600002125,139.31526439997833,None,right,1,0.5313372000236996,139.31526439997833,None,138.83873570000287,139.34801399998832,,,,,,,,,,,mdm0923,001,2020_Jul_09_1554,ANT,2020.1.3,60.14614310501687,
stim/both.png,stim/incongLeft.png,left,0,,,,,0,0,0,0,0,25,25,17,,,,,0.45,139.86572379997233,None,140.3354546999908,140.44724299997324,140.8306427000207,None,right,0,0.48636270000133663,140.8306427000207,None,140.3354546999908,140.84714700002223,,,,,,,,,,,mdm0923,001,2020_Jul_09_1554,ANT,2020.1.3,60.14614310501687,
stim/both.png,stim/congLeft.png,left,0,,,,,0,0,0,0,0,26,26,1,,,,,0.45,141.34608260000823,None,141.80089910002425,141.91260209999746,142.29591759998584,None,left,1,0.5269101000158116,142.29591759998584,None,141.80089910002425,142.3123701000004,,,,,,,,,,,mdm0923,001,2020_Jul_09_1554,ANT,2020.1.3,60.14614310501687,
stim/both.png,stim/neutralRight.png,right,0,,,,,0,0,0,0,0,27,27,41,,,,,0.4,142.8470935000223,None,143.2643693999853,143.37812349997694,143.76134760002606,None,right,1,0.5610137000330724,143.76134760002606,None,143.2643693999853,143.7777828000253,,,,,,,,,,,mdm0923,001,2020_Jul_09_1554,ANT,2020.1.3,60.14614310501687,
stim/lower.png,stim/congRight.png,left,180,,,,,0,0,0,0,0,28,28,12,,,,,0.4,144.3462787999888,None,144.76316079997923,144.87646900000982,145.2604916000273,None,left,1,0.45777719997568056,145.2604916000273,None,144.76316079997923,145.27702229999704,,,,,,,,,,,mdm0923,001,2020_Jul_09_1554,ANT,2020.1.3,60.14614310501687,
stim/blank.png,stim/incongLeft.png,left,0,,,,,0,0,0,0,0,29,29,19,,,,,0.45,145.74349760002224,None,146.1951997000142,146.30916339997202,146.69232769997325,None,left,1,0.5076584999915212,146.69232769997325,None,146.1951997000142,146.7087628999725,,,,,,,,,,,mdm0923,001,2020_Jul_09_1554,ANT,2020.1.3,60.14614310501687,
stim/centre.png,stim/congLeft.png,left,0,,,,,0,0,0,0,0,30,30,2,,,,,0.55,147.22462779999478,None,147.7747282999917,147.87429579999298,148.25769930001115,None,left,1,0.3764067000010982,148.25769930001115,None,147.7747282999917,148.27412349998485,,,,,,,,,,,mdm0923,001,2020_Jul_09_1554,ANT,2020.1.3,60.14614310501687,
stim/blank.png,stim/neutralRight.png,left,180,,,,,0,0,0,0,0,31,31,47,,,,,0.5,148.65798830002313,None,149.1655741999857,149.27338969998527,149.6560090999701,None,left,1,0.46781770000234246,149.6560090999701,None,149.1655741999857,149.67299589997856,,,,,,,,,,,mdm0923,001,2020_Jul_09_1554,ANT,2020.1.3,60.14614310501687,
stim/both.png,stim/congRight.png,right,0,,,,,0,0,0,0,0,32,32,9,,,,,0.4,150.1416985000251,None,150.5596221999731,150.67227520002052,151.05561590002617,None,right,1,0.453646200010553,151.05561590002617,None,150.5596221999731,151.07190789998276,,,,,,,,,,,mdm0923,001,2020_Jul_09_1554,ANT,2020.1.3,60.14614310501687,
stim/centre.png,stim/neutralRight.png,right,0,,,,,0,0,0,0,0,33,33,42,,,,,0.55,151.53808339999523,None,152.08838079997804,152.18777279998176,152.57073999999557,None,right,1,0.41955789999337867,152.57073999999557,None,152.08838079997804,152.58752320002532,,,,,,,,,,,mdm0923,001,2020_Jul_09_1554,ANT,2020.1.3,60.14614310501687,
stim/both.png,stim/incongRight.png,right,0,,,,,0,0,0,0,0,34,34,25,,,,,0.55,153.02016820001882,None,153.5739054000005,153.686541699979,154.0698243000079,None,right,1,0.5349326000432484,154.0698243000079,None,153.5739054000005,154.0861343999859,,,,,,,,,,,mdm0923,001,2020_Jul_09_1554,ANT,2020.1.3,60.14614310501687,
stim/centre.png,stim/neutralRight.png,left,180,,,,,0,0,0,0,0,35,35,46,,,,,0.4,154.6362401000224,None,155.0390573000186,155.15191600000253,155.5350820000167,None,left,1,0.3594992000143975,155.5350820000167,None,155.0390573000186,155.55165199999465,,,,,,,,,,,mdm0923,001,2020_Jul_09_1554,ANT,2020.1.3,60.14614310501687,
stim/blank.png,stim/congRight.png,left,180,,,,,0,0,0,0,0,36,36,15,,,,,0.45,155.91817040002206,None,156.3718159000273,156.48404060001485,156.86683419998735,None,left,1,0.38996030000271276,156.86683419998735,None,156.3718159000273,156.88327699998626,,,,,,,,,,,mdm0923,001,2020_Jul_09_1554,ANT,2020.1.3,60.14614310501687,
stim/blank.png,stim/neutralRight.png,right,0,,,,,0,0,0,0,0,37,37,43,,,,,0.45,157.28331600001547,None,157.73724849999417,157.84951859997818,158.23279819998425,None,right,1,0.35308739996980876,158.23279819998425,None,157.73724849999417,158.2492343999911,,,,,,,,,,,mdm0923,001,2020_Jul_09_1554,ANT,2020.1.3,60.14614310501687,
stim/upper.png,stim/neutralRight.png,right,0,,,,,0,0,0,0,0,38,38,40,,,,,0.45,158.61557740002172,None,159.06921129999682,159.18194580002455,159.56501080002636,None,right,1,0.36987489997409284,159.56501080002636,None,159.06921129999682,159.58197860000655,,,,,,,,,,,mdm0923,001,2020_Jul_09_1554,ANT,2020.1.3,60.14614310501687,
stim/upper.png,stim/neutralLeft.png,left,0,,,,,0,0,0,0,0,39,39,32,,,,,0.5,159.96453539998038,None,160.46637340000598,160.58068409998668,160.96390089998022,None,right,0,0.4069949999684468,160.96390089998022,None,160.46637340000598,160.9805038999766,,,,,,,,,,,mdm0923,001,2020_Jul_09_1554,ANT,2020.1.3,60.14614310501687,
stim/centre.png,stim/congLeft.png,right,180,,,,,0,0,0,0,0,40,40,6,,,,,0.45,161.396625399997,None,161.85128250002163,161.96289540000726,162.34605220000958,None,right,1,0.46078240004135296,162.34605220000958,None,161.85128250002163,162.3625475000008,,,,,,,,,,,mdm0923,001,2020_Jul_09_1554,ANT,2020.1.3,60.14614310501687,
stim/upper.png,stim/incongRight.png,right,0,,,,,0,0,0,0,0,41,41,24,,,,,0.5,162.83493740000995,None,163.35130460001528,163.46165399998426,163.84508110000752,None,left,0,0.38213369995355606,163.84508110000752,None,163.35130460001528,163.86173409997718,,,,,,,,,,,mdm0923,001,2020_Jul_09_1554,ANT,2020.1.3,60.14614310501687,
stim/centre.png,stim/incongRight.png,right,0,,,,,0,0,0,0,0,42,42,26,,,,,0.45,164.24505720002344,None,164.69824990001507,164.8105928999721,165.1936010000063,None,right,1,0.5324688000255264,165.1936010000063,None,164.69824990001507,165.21012190001784,,,,,,,,,,,mdm0923,001,2020_Jul_09_1554,ANT,2020.1.3,60.14614310501687,
stim/both.png,stim/incongLeft.png,right,180,,,,,0,0,0,0,0,43,43,21,,,,,0.55,165.74559820001014,None,166.31433510000352,166.42586860002484,166.80926379997982,None,right,1,0.589229199977126,166.80926379997982,None,166.31433510000352,166.82573819998652,,,,,,,,,,,mdm0923,001,2020_Jul_09_1554,ANT,2020.1.3,60.14614310501687,
stim/both.png,stim/incongRight.png,left,180,,,,,0,0,0,0,0,44,44,29,,,,,0.5,167.4249765999848,None,167.92882510001073,168.04157579998719,168.42425649997313,None,left,1,0.5459286000113934,168.42425649997313,None,167.92882510001073,168.44073490001028,,,,,,,,,,,mdm0923,001,2020_Jul_09_1554,ANT,2020.1.3,60.14614310501687,
stim/lower.png,stim/incongRight.png,left,180,,,,,0,0,0,0,0,45,45,28,,,,,0.4,168.99028149998048,None,169.39510710001923,169.50660620001145,169.88989699998638,None,left,1,0.4368129999493249,169.88989699998638,None,169.39510710001923,169.90653059998294,,,,,,,,,,,mdm0923,001,2020_Jul_09_1554,ANT,2020.1.3,60.14614310501687,
stim/both.png,stim/neutralLeft.png,left,0,,,,,0,0,0,0,0,46,46,33,,,,,0.5,170.35587949998444,None,170.85700780001935,170.9721555999713,171.35526889999164,None,left,1,0.4648927999660373,171.35526889999164,None,170.85700780001935,171.37177869997686,,,,,,,,,,,mdm0923,001,2020_Jul_09_1554,ANT,2020.1.3,60.14614310501687,
stim/lower.png,stim/congLeft.png,right,180,,,,,0,0,0,0,0,47,47,4,,,,,0.4,171.83798449998721,None,172.242350000015,172.35437529999763,172.7376985999872,None,right,1,0.46022179996361956,172.7376985999872,None,172.242350000015,172.75423750001937,,,,,,,,,,,mdm0923,001,2020_Jul_09_1554,ANT,2020.1.3,60.14614310501687,
stim/blank.png,stim/incongRight.png,right,0,,,,,0,0,0,0,1,0,48,27,,,,,0.55,173.22076170000946,None,173.775357800012,173.88624820002588,174.26929490000475,None,right,1,0.5263155000284314,174.26929490000475,None,173.775357800012,174.28568309999537,,,,,,,,,,,mdm0923,001,2020_Jul_09_1554,ANT,2020.1.3,60.14614310501687,
stim/both.png,stim/incongRight.png,left,180,,,,,0,0,0,0,1,1,49,29,,,,,0.4,174.81890419998672,None,175.2235037999926,175.33543580002151,175.71871569997165,None,right,0,0.4226168000022881,175.71871569997165,None,175.2235037999926,175.73490250000032,,,,,,,,,,,mdm0923,001,2020_Jul_09_1554,ANT,2020.1.3,60.14614310501687,
stim/both.png,stim/neutralLeft.png,left,0,,,,,0,0,0,0,1,2,50,33,,,,,0.4,176.1678517999826,None,176.57240389997605,176.68406190001406,177.06730619998416,None,left,1,0.20676249999087304,177.06730619998416,None,176.57240389997605,177.0838575999951,,,,,,,,,,,mdm0923,001,2020_Jul_09_1554,ANT,2020.1.3,60.14614310501687,
stim/lower.png,stim/neutralLeft.png,right,180,,,,,0,0,0,0,1,3,51,36,,,,,0.55,177.2998214000254,None,177.8545769000193,177.96622910001315,178.349565099983,None,right,1,0.12394229997880757,178.349565099983,None,177.8545769000193,178.36605700000655,,,,,,,,,,,mdm0923,001,2020_Jul_09_1554,ANT,2020.1.3,60.14614310501687,
stim/centre.png,stim/neutralRight.png,left,180,,,,,0,0,0,0,1,4,52,46,,,,,0.4,178.4988064999925,None,178.90308690001257,179.0157487000106,179.39881440001773,None,left,1,0.03140559996245429,179.39881440001773,None,178.90308690001257,179.4153519999818,,,,,,,,,,,mdm0923,001,2020_Jul_09_1554,ANT,2020.1.3,60.14614310501687,
stim/upper.png,stim/congRight.png,right,0,,,,,0,0,0,0,1,5,53,8,,,,,0.4,179.44875859998865,None,179.8530851000105,179.96498920000158,180.34785050002392,None,left,0,0.01895269996020943,180.34785050002392,None,179.8530851000105,180.36442030000035,,,,,,,,,,,mdm0923,001,2020_Jul_09_1554,ANT,2020.1.3,60.14614310501687,
stim/blank.png,stim/neutralRight.png,left,180,,,,,0,0,0,0,1,6,54,47,,,,,0.5,180.39769040001556,None,180.89712590002455,180.99745600001188,181.3804296000162,None,right,0,0.3725855000084266,181.3804296000162,None,180.89712590002455,181.39710130001185,,,,,,,,,,,mdm0923,001,2020_Jul_09_1554,ANT,2020.1.3,60.14614310501687,
stim/blank.png,stim/neutralLeft.png,right,180,,,,,0,0,0,0,1,7,55,39,,,,,0.55,181.78030300000682,None,182.33412419998785,182.4460923000006,182.82914779998828,None,left,0,0.3351628999807872,182.82914779998828,None,182.33412419998785,182.8456100000185,,,,,,,,,,,mdm0923,001,2020_Jul_09_1554,ANT,2020.1.3,60.14614310501687,
stim/both.png,stim/congRight.png,left,180,,,,,0,0,0,0,1,8,56,13,,,,,0.4,183.19486270000925,None,183.59910310001578,183.71200290002162,184.0951465999824,None,left,1,0.22274369996739551,184.0951465999824,None,183.59910310001578,184.11186439997982,,,,,,,,,,,mdm0923,001,2020_Jul_09_1554,ANT,2020.1.3,60.14614310501687,
stim/both.png,stim/incongRight.png,right,0,,,,,0,0,0,0,1,9,57,25,,,,,0.45,184.34401060000528,None,184.79885419999482,184.91067780001322,185.2939153999905,None,left,0,0.21376899996539578,185.2939153999905,None,184.79885419999482,185.31059870001627,,,,,,,,,,,mdm0923,001,2020_Jul_09_1554,ANT,2020.1.3,60.14614310501687,
stim/centre.png,stim/congRight.png,left,180,,,,,0,0,0,0,1,10,58,14,,,,,0.45,185.52652509999461,None,185.98051760002272,186.09307379997335,186.47627210000064,None,right,0,0.26530349999666214,186.47627210000064,None,185.98051760002272,186.49272420001216,,,,,,,,,,,mdm0923,001,2020_Jul_09_1554,ANT,2020.1.3,60.14614310501687,
stim/centre.png,stim/congLeft.png,left,0,,,,,0,0,0,0,1,11,59,2,,,,,0.45,186.76135839999188,None,187.22984280000674,187.34198409999954,187.72516959998757,None,left,1,0.13602550001814961,187.72516959998757,None,187.22984280000674,187.74187949998304,,,,,,,,,,,mdm0923,001,2020_Jul_09_1554,ANT,2020.1.3,60.14614310501687,
stim/centre.png,stim/incongLeft.png,left,0,,,,,0,0,0,0,1,12,60,18,,,,,0.5,187.89142080000602,None,188.39666510000825,188.50779250002233,188.89091909996932,None,right,0,0.12225820001913235,188.89091909996932,None,188.39666510000825,188.90735559997847,,,,,,,,,,,mdm0923,001,2020_Jul_09_1554,ANT,2020.1.3,60.14614310501687,
stim/lower.png,stim/incongLeft.png,right,180,,,,,0,0,0,0,1,13,61,20,,,,,0.4,189.04039719997672,None,189.444548200001,189.5571029999992,189.94041470001685,None,left,0,0.22371029999339953,189.94041470001685,None,189.444548200001,189.95653349999338,,,,,,,,,,,mdm0923,001,2020_Jul_09_1554,ANT,2020.1.3,60.14614310501687,
stim/blank.png,stim/incongRight.png,left,180,,,,,0,0,0,0,1,14,62,31,,,,,0.4,190.18961930001387,None,190.59054290002678,190.70627740002237,191.0893317000009,None,left,1,0.3953965000109747,191.0893317000009,None,190.59054290002678,191.10568410000997,,,,,,,,,,,mdm0923,001,2020_Jul_09_1554,ANT,2020.1.3,60.14614310501687,
stim/both.png,stim/incongLeft.png,right,180,,,,,0,0,0,0,1,15,63,21,,,,,0.5,191.50529389997246,None,192.01250999997137,192.12163040001178,192.50472369999625,None,left,0,0.3565477999509312,192.50472369999625,None,192.01250999997137,192.52140510000754,,,,,,,,,,,mdm0923,001,2020_Jul_09_1554,ANT,2020.1.3,60.14614310501687,
stim/both.png,stim/neutralRight.png,right,0,,,,,0,0,0,0,1,16,64,41,,,,,0.4,192.89022359997034,None,193.30624870001338,193.42042669997318,193.8037199000246,None,right,1,0.2743206000304781,193.8037199000246,None,193.30624870001338,193.82005759997992,,,,,,,,,,,mdm0923,001,2020_Jul_09_1554,ANT,2020.1.3,60.14614310501687,
stim/upper.png,stim/incongRight.png,right,0,,,,,0,0,0,0,1,17,65,24,,,,,0.5,194.1050901999697,None,194.62182499998016,194.7359094999847,195.11938940000255,None,left,0,0.26766090001910925,195.11938940000255,None,194.62182499998016,195.13582219998352,,,,,,,,,,,mdm0923,001,2020_Jul_09_1554,ANT,2020.1.3,60.14614310501687,
stim/centre.png,stim/incongRight.png,left,180,,,,,0,0,0,0,1,18,66,30,,,,,0.4,195.41953710000962,None,195.8373926000204,195.95187719998648,196.33484020002652,None,left,1,0.23846269998466596,196.33484020002652,None,195.8373926000204,196.3514910999802,,,,,,,,,,,mdm0923,001,2020_Jul_09_1554,ANT,2020.1.3,60.14614310501687,
stim/blank.png,stim/congLeft.png,left,0,,,,,0,0,0,0,1,19,67,3,,,,,0.55,196.60087720002048,None,197.15379150002263,197.26757780002663,197.6505425000214,None,right,0,0.16923939995467663,197.6505425000214,None,197.15379150002263,197.66692320001312,,,,,,,,,,,mdm0923,001,2020_Jul_09_1554,ANT,2020.1.3,60.14614310501687,
stim/both.png,stim/congLeft.png,left,0,,,,,0,0,0,0,1,20,68,1,,,,,0.55,197.84959890000755,None,198.40348899998935,198.51647939998657,198.89975199999753,None,right,0,0.09235300001455471,198.89975199999753,None,198.40348899998935,198.91588280000724,,,,,,,,,,,mdm0923,001,2020_Jul_09_1554,ANT,2020.1.3,60.14614310501687,
stim/blank.png,stim/incongLeft.png,left,0,,,,,0,0,0,0,1,21,69,19,,,,,0.45,199.0152466999716,None,199.4701002999791,199.5821292999899,199.96534300001804,None,left,1,0.46833020000485703,199.96534300001804,None,199.4701002999791,199.98173040000256,,,,,,,,,,,mdm0923,001,2020_Jul_09_1554,ANT,2020.1.3,60.14614310501687,
stim/lower.png,stim/congRight.png,left,180,,,,,0,0,0,0,1,22,70,12,,,,,0.5,200.46453930001007,None,200.9692619999987,201.08074880001368,201.4634541000123,None,left,1,0.2645916999899782,201.4634541000123,None,200.9692619999987,201.47999309998704,,,,,,,,,,,mdm0923,001,2020_Jul_09_1554,ANT,2020.1.3,60.14614310501687,
stim/lower.png,stim/congLeft.png,right,180,,,,,0,0,0,0,1,23,71,4,,,,,0.4,201.74718619999476,None,202.1515285000205,202.263140199997,202.64595869998448,None,right,1,0.2601421999861486,202.64595869998448,None,202.1515285000205,202.6627650000155,,,,,,,,,,,mdm0923,001,2020_Jul_09_1554,ANT,2020.1.3,60.14614310501687,
stim/centre.png,stim/neutralLeft.png,left,0,,,,,0,0,0,0,1,24,72,34,,,,,0.5,202.9292636999744,None,203.43319060001522,203.5456250999705,203.92890739999712,None,right,0,0.2179436999722384,203.92890739999712,None,203.43319060001522,203.9452798999846,,,,,,,,,,,mdm0923,001,2020_Jul_09_1554,ANT,2020.1.3,60.14614310501687,
stim/upper.png,stim/incongLeft.png,left,0,,,,,0,0,0,0,1,25,73,16,,,,,0.55,204.17937169998186,None,204.74921099998755,204.860941299994,205.24418270000024,None,right,0,0.03996809996897355,205.24418270000024,None,204.74921099998755,205.26077330001863,,,,,,,,,,,mdm0923,001,2020_Jul_09_1554,ANT,2020.1.3,60.14614310501687,
stim/both.png,stim/congRight.png,right,0,,,,,0,0,0,0,1,26,74,9,,,,,0.45,205.31184109998867,None,205.78147370001534,205.89350990002276,206.27645930001745,None,right,1,0.18134230002760887,206.27645930001745,None,205.78147370001534,206.2930016000173,,,,,,,,,,,mdm0923,001,2020_Jul_09_1554,ANT,2020.1.3,60.14614310501687,
stim/blank.png,stim/neutralLeft.png,left,0,,,,,0,0,0,0,1,27,75,35,,,,,0.4,206.4770804999862,None,206.8972522999975,207.0094628999941,207.39207349997014,None,right,0,0.3124549000058323,207.39207349997014,None,206.8972522999975,207.40875329996925,,,,,,,,,,,mdm0923,001,2020_Jul_09_1554,ANT,2020.1.3,60.14614310501687,
stim/upper.png,stim/congLeft.png,left,0,,,,,0,0,0,0,1,28,76,0,,,,,0.55,207.72618280001916,None,208.29386460001115,208.4081260000239,208.79164529999252,None,right,0,0.46622850000858307,208.79164529999252,None,208.29386460001115,208.80804540001554,,,,,,,,,,,mdm0923,001,2020_Jul_09_1554,ANT,2020.1.3,60.14614310501687,
stim/both.png,stim/incongLeft.png,left,0,,,,,0,0,0,0,1,29,77,17,,,,,0.4,209.2737396999728,None,209.6734927999787,209.77341690001776,210.15682089998154,None,left,1,0.4136862000450492,210.15682089998154,None,209.6734927999787,210.17332140001236,,,,,,,,,,,mdm0923,001,2020_Jul_09_1554,ANT,2020.1.3,60.14614310501687,
stim/blank.png,stim/congRight.png,right,0,,,,,0,0,0,0,1,30,78,11,,,,,0.4,210.59032120002666,None,211.0113296000054,211.12255279999226,211.50596839998616,None,left,0,0.2640713000437245,211.50596839998616,None,211.0113296000054,211.52219699998386,,,,,,,,,,,mdm0923,001,2020_Jul_09_1554,ANT,2020.1.3,60.14614310501687,
stim/blank.png,stim/neutralRight.png,right,0,,,,,0,0,0,0,1,31,79,43,,,,,0.5,211.78889620001428,None,212.2926742999698,212.40469629998552,212.78820539999288,None,right,1,0.2565084000234492,212.78820539999288,None,212.2926742999698,212.80481060000602,,,,,,,,,,,mdm0923,001,2020_Jul_09_1554,ANT,2020.1.3,60.14614310501687,
stim/blank.png,stim/incongLeft.png,right,180,,,,,0,0,0,0,1,32,80,23,,,,,0.45,213.0708587000263,None,213.52429189998657,213.63735670002643,214.0205324999988,None,right,1,0.2942058999906294,214.0205324999988,None,213.52429189998657,214.036734000023,,,,,,,,,,,mdm0923,001,2020_Jul_09_1554,ANT,2020.1.3,60.14614310501687,
stim/centre.png,stim/congRight.png,right,0,,,,,0,0,0,0,1,33,81,10,,,,,0.45,214.3370485000196,None,214.7879902999848,214.90269189997343,215.28611970000202,None,right,1,0.10686050000367686,215.28611970000202,None,214.7879902999848,215.30229419999523,,,,,,,,,,,mdm0923,001,2020_Jul_09_1554,ANT,2020.1.3,60.14614310501687,
stim/both.png,stim/neutralLeft.png,right,180,,,,,0,0,0,0,1,34,82,37,,,,,0.5,215.41892430000007,None,215.9231593000004,216.03500640002312,216.41826230002334,None,left,0,0.3820926999906078,216.41826230002334,None,215.9231593000004,216.43504299997585,,,,,,,,,,,mdm0923,001,2020_Jul_09_1554,ANT,2020.1.3,60.14614310501687,
stim/upper.png,stim/neutralLeft.png,left,0,,,,,0,0,0,0,1,35,83,32,,,,,0.45,216.81813540001167,None,217.26916760002496,217.38396870001452,217.76730270002736,None,right,0,0.01789179997285828,217.76730270002736,None,217.26916760002496,217.7839136000257,,,,,,,,,,,mdm0923,001,2020_Jul_09_1554,ANT,2020.1.3,60.14614310501687,
stim/centre.png,stim/incongRight.png,right,0,,,,,0,0,0,0,1,36,84,26,,,,,0.45,217.80024820001563,None,218.2547139999806,218.36655899998732,218.7496272000135,None,left,0,0.1332715000025928,218.7496272000135,None,218.2547139999806,218.76641370001016,,,,,,,,,,,mdm0923,001,2020_Jul_09_1554,ANT,2020.1.3,60.14614310501687,
stim/blank.png,stim/congRight.png,left,180,,,,,0,0,0,0,1,37,85,15,,,,,0.45,218.900403800013,None,219.36946199997328,219.48242449999088,219.86567560001276,None,left,1,0.295564700034447,219.86567560001276,None,219.36946199997328,219.88198180001928,,,,,,,,,,,mdm0923,001,2020_Jul_09_1554,ANT,2020.1.3,60.14614310501687,
stim/upper.png,stim/neutralRight.png,right,0,,,,,0,0,0,0,1,38,86,40,,,,,0.55,220.18167989997892,None,220.73459329997422,220.84789490001276,221.23143109999364,None,right,1,0.36974549997830763,221.23143109999364,None,220.73459329997422,221.24756699998397,,,,,,,,,,,mdm0923,001,2020_Jul_09_1554,ANT,2020.1.3,60.14614310501687,
stim/centre.png,stim/congLeft.png,right,180,,,,,0,0,0,0,1,39,87,6,,,,,0.4,221.63025749998633,None,222.03430519998074,222.14681830001064,222.53031040000496,None,left,0,0.7493147000204772,222.53031040000496,None,222.03430519998074,222.54634609998902,,,,,,,,,,,mdm0923,001,2020_Jul_09_1554,ANT,2020.1.3,60.14614310501687,
stim/centre.png,stim/neutralRight.png,right,0,,,,,0,0,0,0,1,40,88,42,,,,,0.5,223.29559549997794,None,223.79951749998145,223.9114970000228,224.29547640000237,None,right,1,0.4851075999904424,224.29547640000237,None,223.79951749998145,224.31173459999263,,,,,,,,,,,mdm0923,001,2020_Jul_09_1554,ANT,2020.1.3,60.14614310501687,
stim/centre.png,stim/neutralLeft.png,right,180,,,,,0,0,0,0,1,41,89,38,,,,,0.45,224.81156709999777,None,225.26290289999451,225.3772216999787,225.76079259999096,None,left,0,0.22592499997699633,225.76079259999096,None,225.26290289999451,225.77702639997005,,,,,,,,,,,mdm0923,001,2020_Jul_09_1554,ANT,2020.1.3,60.14614310501687,
stim/blank.png,stim/congLeft.png,right,180,,,,,0,0,0,0,1,42,90,7,,,,,0.5,226.01026070001535,None,226.51452640001662,226.6266343999887,227.0099462000071,None,left,0,0.35122780001256615,227.0099462000071,None,226.51452640001662,227.02615599997807,,,,,,,,,,,mdm0923,001,2020_Jul_09_1554,ANT,2020.1.3,60.14614310501687,
stim/centre.png,stim/incongLeft.png,right,180,,,,,0,0,0,0,1,43,91,22,,,,,0.5,227.39236479997635,None,227.8961249999702,228.00893830001587,228.39209889998892,None,left,0,0.24416959995869547,228.39209889998892,None,227.8961249999702,228.40846840001177,,,,,,,,,,,mdm0923,001,2020_Jul_09_1554,ANT,2020.1.3,60.14614310501687,
stim/both.png,stim/congLeft.png,right,180,,,,,0,0,0,0,1,44,92,5,,,,,0.55,228.6576339000021,None,229.21478149999166,229.3241207000101,229.70768509997288,None,right,1,0.10972589999437332,229.70768509997288,None,229.21478149999166,229.72386199998436,,,,,,,,,,,mdm0923,001,2020_Jul_09_1554,ANT,2020.1.3,60.14614310501687,
stim/lower.png,stim/neutralRight.png,left,180,,,,,0,0,0,0,1,45,93,44,,,,,0.55,229.84083529998315,None,230.3939147000201,230.506627499999,230.89000700000906,None,left,1,0.1440123000065796,230.89000700000906,None,230.3939147000201,230.90628360002302,,,,,,,,,,,mdm0923,001,2020_Jul_09_1554,ANT,2020.1.3,60.14614310501687,
stim/both.png,stim/neutralRight.png,left,180,,,,,0,0,0,0,1,46,94,45,,,,,0.4,231.0575260000187,None,231.47692719998304,231.58923869999126,231.972271799983,None,left,1,0.2731054999749176,231.972271799983,None,231.47692719998304,231.9889823999838,,,,,,,,,,,mdm0923,001,2020_Jul_09_1554,ANT,2020.1.3,60.14614310501687,
stim/lower.png,stim/incongRight.png,left,180,,,,,0,0,0,0,1,47,95,28,,,,,0.55,232.2716740000178,None,232.82506290002493,232.938085199974,233.32120369997574,None,right,0,0.34856960002798587,233.32120369997574,None,232.82506290002493,233.33782690000953,,,,,,,,,,,mdm0923,001,2020_Jul_09_1554,ANT,2020.1.3,60.14614310501687,
,,,,,,,,0,0,0,0,,,,,,,,,,,,,,,,,,,,,,,,,,,,,,,233.68728830001783,None,mdm0923,001,2020_Jul_09_1554,ANT,2020.1.3,60.14614310501687,
stim/both.png,stim/neutralRight.png,right,0,,,,,1,0,1,0,0,0,0,41,,,,,0.4,238.1399271999835,None,238.55487240001094,238.66664160002256,239.04999129998032,None,left,0,0.14025019999826327,239.04999129998032,None,238.55487240001094,239.06639709998854,,,,,,,,,,,mdm0923,001,2020_Jul_09_1554,ANT,2020.1.3,60.14614310501687,
stim/lower.png,stim/neutralLeft.png,right,180,,,,,1,0,1,0,0,1,1,36,,,,,0.4,239.22179169999436,None,239.6321504000225,239.73226830002386,240.11575789999915,None,None,0,,240.11575789999915,None,239.6321504000225,240.13206680002622,,,,,,,,,,,mdm0923,001,2020_Jul_09_1554,ANT,2020.1.3,60.14614310501687,
